File: Zn_data/03112020_MnO2_RDE_50mVs_2500rpm_ExtendedBounds_120mL_counter_C04_C03.txt
EC-Lab ASCII FILE
Nb header lines  58

Cyclic Voltammetry

Run on channel  3 (SN 35515)
User
CE vs. WE compliance from -10 V to 10 V
Electrode connection  standard
Ewe ctrl range  min = -2.50 V, max = 2.50 V
Safety Limits
	Do not start on E overload
Acquisition started on  03112020 151016
Technique started on  03112020 151016
Saved on
	File  03112020_MnO2_RDE_50mVs_2500rpm_ExtendedBounds_120mL_counter_C04_C03.mpr
	Directory  CUsersCESLDocumentsEC-LabDataUndergradKatelynEChem20200311
	Host  169.254.217.189
Device  VSP (SN 1724172417241724)
Address  USB
EC-Lab for windows v11.16 (software)
Internet server v11.16 (firmware)
Command interpretor v11.16 (firmware)
Electrode material  AuPd
Initial state
Electrolyte  NaCl (0.2M)
Comments  Fe(CN)63-Fe(CN)64- 5.10-3 M
Reference electrode  SCE Saturated Calomel Electrode (0.241 V)
Electrode surface area  0.001 cmÂ²
Characteristic mass  0.001 g
Equivalent Weight  0.000 geq.
Density  0.000 gcm3
Record Ece
Record Power
Cycle Definition  ChargeDischarge alternance
Ei (V)              -1.000
vs.                 Ref
dEdt               50.000
dEdt unit          mVs
E1 (V)              1.200
vs.                 Ref
Step percent        50
N                   10
E range min (V)     -2.500
E range max (V)     2.500
I Range             Auto
I Range min         Unset
I Range max         Unset
I Range init        Unset
Bandwidth           5
E2 (V)              -2.000
vs.                 Ref
nc cycles           2
Reverse Scan        1
Ef (V)              -1.000
vs.                 Ref

mode	oxred	error	control changes	counter inc.	times	controlV	EweV	ImA	cycle number	(Q-Qo)C	EceV	PW	Ewe-EceV
2	1	0	0	0	0.000000000000000E+000	-0.997045	-0.99734	-0.0968825	1	0.0000000E+000	-0.219662	9.66248e-05	-0.777678
2	1	0	0	0	0.691	-0.962487	-0.962825	-0.0715488	1	-5.41494e-05	0.374857	6.8889e-05	-1.33768
2	1	0	1	0	1.3912	-0.927479	-0.927796	-0.0616771	1	-0.00010066	0.406971	5.72238e-05	-1.33477
2	1	0	0	0	2.0914	-0.892471	-0.892861	-0.0527452	1	-0.000140755	0.356776	4.70941e-05	-1.24964
2	1	0	1	0	2.8236	-0.855862	-0.85622	-0.0442178	1	-0.000176247	0.250157	3.78602e-05	-1.10638
2	1	0	0	0	3.5238	-0.820854	-0.821196	-0.0363064	1	-0.000204359	0.109318	2.98146e-05	-0.930514
2	1	0	1	0	4.224	-0.785846	-0.786168	-0.0291774	1	-0.000227251	-0.0585828	2.29384e-05	-0.727585
2	1	0	1	0	4.924	-0.750838	-0.751152	-0.022889	1	-0.000245401	-0.226224	1.71931e-05	-0.524928
2	1	0	0	0	5.6242	-0.715829	-0.716169	-0.0175086	1	-0.000259452	-0.366234	1.25391e-05	-0.349935
2	1	0	1	0	6.3244	-0.680821	-0.681134	-0.0131963	1	-0.000270148	-0.466785	8.98842e-06	-0.214349
2	1	0	0	0	7.0246	-0.645813	-0.646149	-0.00990115	1	-0.000278177	-0.525416	6.39762e-06	-0.120732
2	1	0	1	0	7.7248	-0.610805	-0.611166	-0.00744751	1	-0.000284169	-0.559372	4.55166e-06	-0.0517936
2	1	0	1	0	8.4248	-0.575797	-0.576143	-0.00568743	1	-0.000288719	-0.579061	3.27678e-06	0.00291783
2	1	0	0	0	9.157	-0.539188	-0.539517	-0.00454825	1	-0.000292425	-0.590454	2.45386e-06	0.0509376
2	1	0	1	0	9.8572	-0.50418	-0.504501	-0.00403816	1	-0.000295394	-0.596639	2.03726e-06	0.0921379
2	1	0	0	0	10.5574	-0.469171	-0.469497	-0.00386799	1	-0.000298141	-0.598808	1.81601e-06	0.129312
2	1	0	1	0	11.2576	-0.434163	-0.434493	-0.00373635	1	-0.00030081	-0.599467	1.62342e-06	0.164974
2	1	0	0	0	11.9578	-0.399155	-0.399427	-0.00329218	1	-0.000303297	-0.60267	1.31498e-06	0.203244
2	1	0	0	0	12.6578	-0.364147	-0.364433	-0.00248068	1	-0.000305335	-0.607743	9.04041e-07	0.24331
2	1	0	1	0	13.358	-0.329138	-0.329346	-0.00145693	1	-0.000306707	-0.614167	4.79832e-07	0.284821
2	1	0	0	0	14.0582	-0.29413	-0.294404	-0.000498342	1	-0.000307368	-0.619885	1.46714e-07	0.325481
2	1	0	1	0	14.7584	-0.259122	-0.259403	0.00023314	1	-0.000307433	-0.625361	-6.04773e-08	0.365958
2	1	0	0	0	15.4586	-0.224114	-0.224383	0.000697913	1	-0.000307078	-0.62869	-1.566e-07	0.404307
2	1	0	1	0	16.1588	-0.189105	-0.189355	0.00106249	1	-0.000306453	-0.630032	-2.01188e-07	0.440677
2	1	0	1	0	16.8588	-0.154097	-0.154415	0.00129057	1	-0.00030563	-0.632066	-1.99283e-07	0.477652
2	1	0	0	0	17.559	-0.119089	-0.119401	0.00152054	1	-0.000304639	-0.634129	-1.81553e-07	0.514728
2	1	0	1	0	18.2592	-0.0840808	-0.0843974	0.00171978	1	-0.000303496	-0.634322	-1.45145e-07	0.549925
2	1	0	0	0	18.9594	-0.0490725	-0.0493709	0.00188433	1	-0.000302217	-0.634922	-9.30309e-08	0.585551
2	1	0	1	0	19.6596	-0.0140643	-0.0143984	0.00203683	1	-0.000300824	-0.636301	-2.93271e-08	0.621903
2	1	0	0	0	20.3598	0.020944	0.0206769	0.00212612	1	-0.000299352	-0.636584	4.39617e-08	0.657261
2	1	0	0	0	21.0598	0.0559522	0.05566	0.00224526	1	-0.000297817	-0.636231	1.24971e-07	0.691891
2	1	0	1	0	21.76	0.0909604	0.0907204	0.00232402	1	-0.000296218	-0.636856	2.10836e-07	0.727576
2	1	0	0	0	22.4602	0.125969	0.125639	0.00239716	1	-0.000294561	-0.637575	3.01176e-07	0.763214
2	1	0	1	0	23.1604	0.160977	0.160713	0.00254063	1	-0.000292829	-0.636845	4.08312e-07	0.797558
2	1	0	0	0	23.8606	0.195985	0.195671	0.00267964	1	-0.000290994	-0.637761	5.24328e-07	0.833432
2	1	0	0	0	24.5606	0.230993	0.230686	0.00284315	1	-0.000289047	-0.63904	6.55874e-07	0.869726
2	1	0	1	0	25.2608	0.266002	0.265691	0.00299517	1	-0.000286989	-0.639258	7.95789e-07	0.904949
2	1	0	0	0	25.961	0.30101	0.3007	0.00318455	1	-0.000284815	-0.639498	9.57595e-07	0.940198
2	1	0	1	0	26.6612	0.336018	0.335738	0.00334413	1	-0.000282526	-0.640408	1.12275e-06	0.976146
2	1	0	0	0	27.3614	0.371026	0.370706	0.00348177	1	-0.000280121	-0.641429	1.29071e-06	1.01214
2	1	0	1	0	28.0616	0.406034	0.405709	0.00371331	1	-0.000277605	-0.641519	1.50652e-06	1.04723
2	1	0	1	0	28.7616	0.441043	0.440844	0.0038236	1	-0.000274974	-0.642323	1.68561e-06	1.08317
2	1	0	0	0	29.4618	0.476051	0.475818	0.00398618	1	-0.000272232	-0.643257	1.8967e-06	1.11908
2	1	0	1	0	30.162	0.511059	0.510818	0.00420094	1	-0.000269359	-0.644094	2.14592e-06	1.15491
2	1	0	0	0	30.8622	0.546067	0.54591	0.00441039	1	-0.000266337	-0.64512	2.40767e-06	1.19103
2	1	0	1	0	31.5624	0.581076	0.580844	0.00460843	1	-0.000263162	-0.646437	2.67678e-06	1.22728
2	1	0	0	0	32.2626	0.616084	0.615861	0.00485246	1	-0.000259839	-0.647902	2.98844e-06	1.26376
2	1	0	0	0	32.9626	0.651092	0.650868	0.00511663	1	-0.00025634	-0.648298	3.33025e-06	1.29917
2	1	0	1	0	33.6628	0.6861	0.685876	0.00537632	1	-0.000252665	-0.64976	3.68749e-06	1.33564
2	1	0	0	0	34.363	0.721109	0.720868	0.00564769	1	-0.0002488	-0.651649	4.07124e-06	1.37252
2	1	0	1	0	35.0632	0.756117	0.755898	0.00599705	1	-0.000244728	-0.652157	4.53316e-06	1.40806
2	1	0	0	0	35.7634	0.791125	0.790904	0.00628406	1	-0.000240432	-0.653663	4.97008e-06	1.44457
2	1	0	0	0	36.4634	0.826133	0.825906	0.00666538	1	-0.00023589	-0.656156	5.50497e-06	1.48206
2	1	0	1	0	37.1636	0.861141	0.860942	0.00709233	1	-0.00023106	-0.658172	6.10608e-06	1.51911
2	1	0	0	0	37.8638	0.89615	0.895892	0.00760626	1	-0.000225908	-0.659551	6.81439e-06	1.55544
2	1	0	1	0	38.564	0.931158	0.930971	0.00814968	1	-0.000220391	-0.662037	7.58712e-06	1.59301
2	1	0	0	0	39.2642	0.966166	0.965969	0.00874242	1	-0.000214458	-0.665408	8.44491e-06	1.63138
2	1	0	1	0	39.9644	1.00117	1.00099	0.00953717	1	-0.000208059	-0.667636	9.5466e-06	1.66862
2	1	0	1	0	40.6964	1.03778	1.03755	0.0103716	1	-0.000200779	-0.672683	1.07611e-05	1.71024
2	1	0	0	0	41.3966	1.07279	1.0726	0.0112185	1	-0.000193207	-0.677142	1.2033e-05	1.74974
2	1	0	1	0	42.0968	1.1078	1.10757	0.0122877	1	-0.000184966	-0.680857	1.36095e-05	1.78843
2	1	0	0	0	42.797	1.14281	1.14263	0.0134187	1	-0.000175984	-0.685878	1.53326e-05	1.82851
2	1	0	1	0	43.4972	1.17782	1.17762	0.0146472	1	-0.000166151	-0.692137	1.72488e-05	1.86976
2	0	0	0	0	44.1718	1.18842	1.18825	0.012971	1	-0.000156191	-0.689173	1.54128e-05	1.87742
2	0	0	1	0	44.872	1.15341	1.1532	0.00873529	1	-0.000148756	-0.667652	1.00735e-05	1.82085
2	0	0	0	0	45.5722	1.1184	1.11823	0.00627406	1	-0.000143585	-0.65311	7.01586e-06	1.77134
2	0	0	1	0	46.3044	1.08179	1.08157	0.0045935	1	-0.000139658	-0.642261	4.9682e-06	1.72383
2	0	0	1	0	47.0044	1.04678	1.04661	0.00351351	1	-0.000136846	-0.633596	3.67726e-06	1.6802
2	0	0	0	0	47.7046	1.01178	1.01161	0.00267824	1	-0.000134702	-0.626743	2.70934e-06	1.63835
2	0	0	1	0	48.4048	0.976769	0.976602	0.00207507	1	-0.000133054	-0.62247	2.02652e-06	1.59907
2	0	0	0	0	49.105	0.94176	0.941575	0.00160144	1	-0.000131786	-0.617535	1.50788e-06	1.55911
2	0	0	1	0	49.8052	0.906752	0.906506	0.00120966	1	-0.000130819	-0.614686	1.09656e-06	1.52119
2	0	0	1	0	50.5052	0.871744	0.871573	0.00087538	1	-0.000130097	-0.611422	7.62958e-07	1.483
2	0	0	0	0	51.2054	0.836736	0.836511	0.000599391	1	-0.000129587	-0.607963	5.01397e-07	1.44447
2	0	0	1	0	51.9056	0.801727	0.801481	0.000371221	1	-0.000129256	-0.606141	2.97527e-07	1.40762
2	0	0	0	0	52.6058	0.766719	0.766434	0.00016521	1	-0.000129081	-0.604498	1.26623e-07	1.37093
2	0	0	1	0	53.306	0.731711	0.731473	-2.6828e-05	1	-0.000129036	-0.602829	-1.9624e-08	1.3343
2	0	0	0	0	54.0062	0.696703	0.696438	-0.000178034	1	-0.000129108	-0.600916	-1.23989e-07	1.29735
2	0	0	0	0	54.7062	0.661694	0.661466	-0.000333608	1	-0.000129291	-0.599642	-2.20671e-07	1.26111
2	0	0	1	0	55.4064	0.626686	0.626411	-0.000469895	1	-0.000129579	-0.598254	-2.94348e-07	1.22466
2	0	0	0	0	56.1066	0.591678	0.59143	-0.000600963	1	-0.000129965	-0.595955	-3.55428e-07	1.18739
2	0	0	1	0	56.8068	0.55667	0.556464	-0.000724516	1	-0.000130439	-0.59471	-4.03167e-07	1.15117
2	0	0	0	0	57.507	0.521662	0.521429	-0.000851237	1	-0.000130998	-0.593897	-4.4386e-07	1.11533
2	0	0	1	0	58.2072	0.486653	0.486413	-0.000985865	1	-0.000131644	-0.592136	-4.79538e-07	1.07855
2	0	0	1	0	58.9072	0.451645	0.451448	-0.00107876	1	-0.000132366	-0.591516	-4.87005e-07	1.04296
2	0	0	0	0	59.6074	0.416637	0.41637	-0.00120148	1	-0.000133175	-0.589532	-5.00261e-07	1.0059
2	0	0	1	0	60.3076	0.381629	0.381324	-0.00132266	1	-0.000134073	-0.587785	-5.04361e-07	0.969109
2	0	0	0	0	61.0078	0.34662	0.34634	-0.00142213	1	-0.000135052	-0.586173	-4.9254e-07	0.932513
2	0	0	1	0	61.708	0.311612	0.311333	-0.00160122	1	-0.000136121	-0.584188	-4.98513e-07	0.895521
2	0	0	1	0	62.408	0.276604	0.276292	-0.00173053	1	-0.000137293	-0.582592	-4.78132e-07	0.858884
2	0	0	0	0	63.1082	0.241596	0.241253	-0.00189105	1	-0.000138564	-0.580067	-4.56221e-07	0.821319
2	0	0	1	0	63.8084	0.206588	0.206305	-0.00202007	1	-0.000139941	-0.578884	-4.16749e-07	0.785188
2	0	0	0	0	64.5086	0.171579	0.171336	-0.00222304	1	-0.000141443	-0.57614	-3.80888e-07	0.747477
2	0	0	1	0	65.2088	0.136571	0.136271	-0.0023973	1	-0.000143065	-0.574311	-3.26682e-07	0.710582
2	0	0	0	0	65.909	0.101563	0.101262	-0.00258811	1	-0.000144814	-0.571879	-2.62078e-07	0.673141
2	0	0	0	0	66.609	0.0665547	0.0663363	-0.00277134	1	-0.000146691	-0.569782	-1.83841e-07	0.636119
2	0	0	1	0	67.3092	0.0315465	0.031278	-0.00294312	1	-0.000148696	-0.567377	-9.20549e-08	0.598655
2	0	0	0	0	68.0094	-0.00346178	-0.00379629	-0.00309797	1	-0.000150825	-0.564666	1.17608e-08	0.56087
2	0	0	1	0	68.7096	-0.03847	-0.0388228	-0.00331161	1	-0.000153075	-0.562208	1.28566e-07	0.523385
2	0	0	0	0	69.4098	-0.0734783	-0.0738091	-0.00344885	1	-0.000155453	-0.559944	2.54556e-07	0.486135
2	0	0	1	0	70.11	-0.108486	-0.1088	-0.0036153	1	-0.000157931	-0.558216	3.93343e-07	0.449417
2	0	0	1	0	70.81	-0.143495	-0.14376	-0.00374216	1	-0.000160505	-0.55723	5.37974e-07	0.413469
2	0	0	0	0	71.5102	-0.178503	-0.1788	-0.00389317	1	-0.000163183	-0.554825	6.96097e-07	0.376025
2	0	0	1	0	72.2104	-0.213511	-0.213781	-0.00401972	1	-0.000165955	-0.553712	8.59339e-07	0.339932
2	0	0	0	0	72.9106	-0.248519	-0.248784	-0.00423225	1	-0.000168853	-0.551164	1.05292e-06	0.30238
2	0	0	1	0	73.6108	-0.283528	-0.283818	-0.00462818	1	-0.000171952	-0.547269	1.31356e-06	0.263451
2	0	0	1	0	74.3108	-0.318536	-0.318791	-0.00523524	1	-0.000175402	-0.540245	1.66895e-06	0.221454
2	0	0	0	0	75.011	-0.353544	-0.353801	-0.00601658	1	-0.000179332	-0.531098	2.12867e-06	0.177297
2	0	0	1	0	75.7112	-0.388552	-0.388847	-0.00695538	1	-0.000183864	-0.519524	2.70458e-06	0.130677
2	0	0	0	0	76.4114	-0.423561	-0.423937	-0.00800936	1	-0.000189119	-0.502877	3.39546e-06	0.0789399
2	0	0	1	0	77.1116	-0.458569	-0.458881	-0.00934087	1	-0.000195196	-0.484058	4.28634e-06	0.0251769
2	0	0	0	0	77.8438	-0.495178	-0.495491	-0.0111992	1	-0.000202704	-0.455232	5.54912e-06	-0.0402589
2	0	0	0	0	78.5438	-0.530186	-0.530448	-0.0134346	1	-0.000211302	-0.414218	7.12638e-06	-0.11623
2	0	0	1	0	79.244	-0.565194	-0.565566	-0.0162151	1	-0.000221677	-0.362306	9.17072e-06	-0.20326
2	0	0	0	0	79.9442	-0.600202	-0.600506	-0.0198184	1	-0.000234253	-0.287229	1.19011e-05	-0.313278
2	0	0	1	0	80.6444	-0.63521	-0.63552	-0.0238717	1	-0.000249487	-0.197022	1.51709e-05	-0.438499
2	0	0	0	0	81.3446	-0.670219	-0.670504	-0.0287279	1	-0.000267886	-0.0903565	1.92622e-05	-0.580148
2	0	0	1	0	82.0448	-0.705227	-0.705542	-0.0342905	1	-0.000289898	0.0187275	2.41934e-05	-0.72427
2	0	0	1	0	82.7448	-0.740235	-0.740556	-0.0403726	1	-0.000315975	0.12476	2.98982e-05	-0.865317
2	0	0	0	0	83.445	-0.775243	-0.775494	-0.0467958	1	-0.000346486	0.22733	3.62899e-05	-1.00282
2	0	0	1	0	84.1452	-0.810252	-0.810511	-0.0538078	1	-0.000381753	0.321047	4.36118e-05	-1.13156
2	0	0	0	0	84.8454	-0.84526	-0.845556	-0.0614943	1	-0.000422121	0.396882	5.19969e-05	-1.24244
2	0	0	1	0	85.5456	-0.880268	-0.880589	-0.0688559	1	-0.000467729	0.475511	6.06338e-05	-1.3561
2	0	0	0	0	86.2458	-0.915276	-0.915568	-0.0762374	1	-0.000518628	0.54533	6.98006e-05	-1.4609
2	0	0	0	0	86.9458	-0.950285	-0.950615	-0.0842418	1	-0.000574785	0.604431	8.00815e-05	-1.55505
2	0	0	1	0	87.646	-0.985293	-0.985596	-0.0914559	1	-0.000636226	0.660246	9.01385e-05	-1.64584
2	0	0	0	0	88.3462	-1.0203	-1.02061	-0.0982088	1	-0.000702766	0.717183	0.000100233	-1.7378
2	0	0	1	0	89.0784	-1.05691	-1.05724	-0.105887	1	-0.000777475	0.758441	0.000111948	-1.81568
2	0	0	0	0	89.7786	-1.09192	-1.0922	-0.111837	1	-0.000853585	0.798409	0.000122149	-1.89061
2	0	0	0	0	90.4787	-1.12693	-1.1272	-0.11712	1	-0.000933921	0.842989	0.000132018	-1.97019
2	0	0	1	0	91.1788	-1.16193	-1.1622	-0.123524	1	-0.00101824	0.872674	0.00014356	-2.03487
2	0	0	0	0	91.879	-1.19694	-1.19719	-0.12826	1	-0.00110623	0.902478	0.000153551	-2.09967
2	0	0	1	0	92.5792	-1.23195	-1.23233	-0.132072	1	-0.00119744	0.937187	0.000162757	-2.16952
2	0	0	0	0	93.2794	-1.26696	-1.26727	-0.136303	1	-0.00129159	0.960541	0.000172732	-2.22781
2	0	0	1	0	93.9796	-1.30197	-1.30229	-0.140512	1	-0.00138847	0.981263	0.000182987	-2.28355
2	0	0	1	0	94.6796	-1.33698	-1.33734	-0.143136	1	-0.00148771	1.00736	0.000191422	-2.3447
2	0	0	0	0	95.3798	-1.37198	-1.37233	-0.145528	1	-0.00158908	1.03463	0.000199713	-2.40696
2	0	0	1	0	96.08	-1.40699	-1.40732	-0.149312	1	-0.00169239	1.04972	0.00021013	-2.45704
2	0	0	0	0	96.7802	-1.442	-1.44231	-0.15143	1	-0.00179745	1.06938	0.000218409	-2.51169
2	0	0	1	0	97.4804	-1.47701	-1.47731	-0.152768	1	-0.00190391	1.09702	0.000225686	-2.57433
2	0	0	0	0	98.1806	-1.51202	-1.51227	-0.155066	1	-0.00201172	1.10971	0.000234502	-2.62198
2	0	0	0	0	98.8806	-1.54703	-1.54729	-0.156609	1	-0.00212075	1.12269	0.000242319	-2.66997
2	0	0	1	0	99.5808	-1.58203	-1.58233	-0.157514	1	-0.00223081	1.14336	0.000249239	-2.72568
2	0	0	0	0	100.281	-1.61704	-1.61733	-0.158859	1	-0.00234176	1.16205	0.000256928	-2.77938
2	0	0	1	0	100.981	-1.65205	-1.6524	-0.161063	1	-0.00245376	1.16626	0.00026614	-2.81866
2	0	0	0	0	101.681	-1.68706	-1.68735	-0.161599	1	-0.00256658	1.17958	0.000272674	-2.86692
2	0	0	0	0	102.381	-1.72207	-1.72239	-0.162866	1	-0.00268027	1.20168	0.000280519	-2.92408
2	0	0	1	0	103.082	-1.75707	-1.75735	-0.164933	1	-0.00279497	1.20405	0.000289844	-2.9614
2	0	0	0	0	103.782	-1.79208	-1.79235	-0.166509	1	-0.00291083	1.21155	0.000298442	-3.0039
2	0	0	1	0	104.482	-1.82709	-1.8274	-0.167264	1	-0.00302779	1.22546	0.000305659	-3.05286
2	0	0	0	0	105.182	-1.8621	-1.86235	-0.169307	1	-0.00314579	1.22912	0.00031531	-3.09147
2	0	0	1	0	105.882	-1.89711	-1.89735	-0.172443	1	-0.00326533	1.23053	0.000327185	-3.12788
2	0	0	1	0	106.582	-1.93212	-1.93234	-0.17423	1	-0.00338651	1.24399	0.000336671	-3.17633
2	0	0	0	0	107.283	-1.96712	-1.96732	-0.176552	1	-0.00350955	1.25449	0.000347336	-3.22181
2	1	0	0	1	107.951	-1.99943	-1.99962	-0.180086	1	-0.00362923	1.26374	0.000360103	-3.26336
2	1	0	1	1	108.652	-1.96442	-1.96463	-0.171978	1	-0.00375199	1.24075	0.000337874	-3.20538
2	1	0	0	1	109.352	-1.92942	-1.92966	-0.166396	1	-0.00387028	1.21279	0.000321088	-3.14245
2	1	0	0	1	110.052	-1.89441	-1.89464	-0.162436	1	-0.00398548	1.215	0.000307757	-3.10964
2	1	0	1	1	110.752	-1.8594	-1.85961	-0.160514	1	-0.0040985	1.20217	0.000298493	-3.06178
2	1	0	0	1	111.452	-1.82439	-1.82466	-0.158326	1	-0.00420984	1.14404	0.000288892	-2.9687
2	1	0	1	1	112.152	-1.78938	-1.78965	-0.155727	1	-0.0043198	1.19917	0.000278697	-2.98882
2	1	0	0	1	112.853	-1.75437	-1.75465	-0.154116	1	-0.00442838	1.19663	0.00027042	-2.95128
2	1	0	1	1	113.553	-1.71937	-1.71965	-0.153179	1	-0.00453603	1.1875	0.000263414	-2.90715
2	1	0	1	1	114.253	-1.68436	-1.68465	-0.151695	1	-0.00464276	1.19168	0.000255553	-2.87633
2	1	0	0	1	114.953	-1.64935	-1.64961	-0.15069	1	-0.00474864	1.12375	0.00024858	-2.77336
2	1	0	1	1	115.653	-1.61434	-1.61457	-0.149658	1	-0.00485371	1.14491	0.000241633	-2.75948
2	1	0	0	1	116.353	-1.57933	-1.57959	-0.148135	1	-0.00495784	1.14273	0.000233993	-2.72233
2	1	0	1	1	117.054	-1.54432	-1.54458	-0.146094	1	-0.00506088	1.13226	0.000225653	-2.67684
2	1	0	0	1	117.754	-1.50932	-1.50958	-0.14529	1	-0.00516285	1.11879	0.000219327	-2.62838
2	1	0	0	1	118.454	-1.47431	-1.4746	-0.142792	1	-0.00526341	1.09801	0.000210562	-2.57262
2	1	0	1	1	119.154	-1.4393	-1.43962	-0.139979	1	-0.00536244	1.08186	0.000201517	-2.52148
2	1	0	0	1	119.854	-1.40429	-1.4046	-0.13725	1	-0.0054596	1.06426	0.000192782	-2.46886
2	1	0	1	1	120.554	-1.36928	-1.36959	-0.134248	1	-0.00555466	1.02808	0.000183864	-2.39767
2	1	0	0	1	121.255	-1.33428	-1.33464	-0.129902	1	-0.00564713	1.00039	0.000173373	-2.33503
2	1	0	0	1	121.955	-1.29927	-1.29965	-0.125311	1	-0.0057366	0.961484	0.00016286	-2.26113
2	1	0	1	1	122.655	-1.26426	-1.26461	-0.121096	1	-0.00582278	0.796625	0.000153139	-2.06123
2	1	0	0	1	123.355	-1.22925	-1.22954	-0.114646	1	-0.00590522	0.805448	0.000140962	-2.03499
2	1	0	1	1	124.055	-1.19424	-1.19448	-0.10797	1	-0.0059832	0.776474	0.000128968	-1.97096
2	1	0	0	1	124.755	-1.15923	-1.15946	-0.101463	1	-0.00605658	0.687268	0.000117642	-1.84673
2	1	0	1	1	125.456	-1.12423	-1.1245	-0.0942682	1	-0.00612497	0.578975	0.000106005	-1.70348
2	1	0	1	1	126.156	-1.08922	-1.08951	-0.0862488	1	-0.00618813	0.455858	9.39685e-05	-1.54536
2	1	0	0	1	126.856	-1.05421	-1.05451	-0.0784269	1	-0.0062459	0.340337	8.27019e-05	-1.39485
2	1	0	1	1	127.556	-1.0192	-1.01954	-0.071068	1	-0.00629822	0.214468	7.24566e-05	-1.23401
2	1	0	0	1	128.232	-0.985393	-0.985713	-0.0632216	2	-0.0063435	0.0799801	6.23183e-05	-1.06569
2	1	0	1	1	128.932	-0.950385	-0.950736	-0.0552093	2	-0.00638497	-0.0433893	5.24894e-05	-0.907346
2	1	0	1	1	129.632	-0.915376	-0.915713	-0.0478585	2	-0.00642106	-0.165386	4.38247e-05	-0.750327
2	1	0	0	1	130.365	-0.878768	-0.879069	-0.0403694	2	-0.00645333	-0.292101	3.54875e-05	-0.586968
2	1	0	1	1	131.065	-0.84376	-0.844069	-0.0334291	2	-0.00647912	-0.400349	2.82165e-05	-0.443719
2	1	0	0	1	131.765	-0.808751	-0.809043	-0.0273858	2	-0.00650039	-0.476826	2.21563e-05	-0.332217
2	1	0	1	1	132.465	-0.773743	-0.774043	-0.0219161	2	-0.00651761	-0.528122	1.6964e-05	-0.245922
2	1	0	0	1	133.165	-0.738735	-0.739029	-0.0170617	2	-0.00653119	-0.563081	1.26091e-05	-0.175949
2	1	0	0	1	133.865	-0.703727	-0.703951	-0.0131228	2	-0.0065417	-0.586614	9.23779e-06	-0.117337
2	1	0	1	1	134.566	-0.668718	-0.669076	-0.0100133	2	-0.00654974	-0.604352	6.69964e-06	-0.0647246
2	1	0	0	1	135.266	-0.63371	-0.63399	-0.00762367	2	-0.00655586	-0.616117	4.83333e-06	-0.0178727
2	1	0	1	1	135.966	-0.598702	-0.599041	-0.00579951	2	-0.00656051	-0.624137	3.47415e-06	0.0250963
2	1	0	0	1	136.696	-0.562193	-0.562485	-0.00442273	2	-0.0065642	-0.630101	2.48772e-06	0.067616
2	1	0	1	1	137.396	-0.527185	-0.527459	-0.00361775	2	-0.00656698	-0.634401	1.90822e-06	0.106943
2	1	0	1	1	138.096	-0.492177	-0.492501	-0.00321434	2	-0.00656934	-0.63917	1.58307e-06	0.146669
2	1	0	0	1	138.797	-0.457169	-0.457448	-0.00302816	2	-0.00657151	-0.637814	1.38523e-06	0.180366
2	1	0	1	1	139.497	-0.42216	-0.422452	-0.00272752	2	-0.00657354	-0.638868	1.15225e-06	0.216416
2	1	0	0	1	140.197	-0.387152	-0.387423	-0.002064	2	-0.00657524	-0.641707	7.9964e-07	0.254285
2	1	0	1	1	140.897	-0.352144	-0.352404	-0.00111147	2	-0.00657636	-0.644676	3.91687e-07	0.292273
2	1	0	0	1	141.597	-0.317136	-0.31735	-0.00012692	2	-0.00657678	-0.648183	4.02781e-08	0.330833
2	1	0	0	1	142.297	-0.282127	-0.282377	0.000727046	2	-0.00657655	-0.652279	-2.05301e-07	0.369902
2	1	0	1	1	142.998	-0.247119	-0.247409	0.00136065	2	-0.00657578	-0.654943	-3.36636e-07	0.407534
2	1	0	0	1	143.698	-0.212111	-0.212377	0.00180519	2	-0.00657465	-0.656284	-3.83381e-07	0.443907
2	1	0	1	1	144.398	-0.177103	-0.177375	0.00209344	2	-0.00657327	-0.658752	-3.71323e-07	0.481378
2	1	0	0	1	145.098	-0.142094	-0.142379	0.00229621	2	-0.00657172	-0.660655	-3.26932e-07	0.518276
2	1	0	0	1	145.798	-0.107091	-0.107414	0.00241858	2	-0.00657007	-0.659729	-2.5979e-07	0.552315
2	1	0	1	1	146.498	-0.0720779	-0.0724254	0.00243624	2	-0.00656838	-0.659652	-1.76445e-07	0.587226
2	1	0	0	1	147.199	-0.0370697	-0.0373808	0.00246922	2	-0.00656665	-0.65982	-9.23014e-08	0.622439
2	1	0	1	1	147.899	-0.00206145	-0.00237122	0.00251938	2	-0.00656489	-0.659504	-5.97399e-09	0.657133
2	1	0	0	1	148.599	0.0329468	0.0326723	0.00251021	2	-0.00656312	-0.658355	8.20143e-08	0.691027
2	1	0	1	1	149.299	0.067955	0.0676861	0.0025387	2	-0.00656134	-0.658971	1.71835e-07	0.726657
2	1	0	1	1	149.999	0.102963	0.102663	0.00257758	2	-0.00655955	-0.659134	2.64622e-07	0.761797
2	1	0	0	1	150.699	0.137971	0.137694	0.00263542	2	-0.00655772	-0.658276	3.6288e-07	0.79597
2	1	0	1	1	151.4	0.17298	0.172752	0.0027089	2	-0.00655584	-0.658606	4.67967e-07	0.831358
2	1	0	0	1	152.1	0.207988	0.207709	0.00283504	2	-0.00655389	-0.659495	5.88861e-07	0.867203
2	1	0	1	1	152.8	0.242996	0.242749	0.00299009	2	-0.00655185	-0.659732	7.2584e-07	0.902481
2	1	0	0	1	153.5	0.278004	0.277706	0.00315534	2	-0.0065497	-0.659998	8.76259e-07	0.937704
2	1	0	0	1	154.2	0.313013	0.312739	0.00329892	2	-0.00654744	-0.660711	1.0317e-06	0.973451
2	1	0	1	1	154.9	0.348021	0.347723	0.00343785	2	-0.00654506	-0.660421	1.19542e-06	1.00814
2	1	0	0	1	155.601	0.383029	0.382754	0.00361254	2	-0.00654258	-0.660815	1.38272e-06	1.04357
2	1	0	1	1	156.301	0.418037	0.417872	0.00378168	2	-0.00653999	-0.661823	1.58026e-06	1.07969
2	1	0	0	1	157.001	0.453045	0.452856	0.00392048	2	-0.00653728	-0.662698	1.77541e-06	1.11555
2	1	0	1	1	157.701	0.488054	0.48787	0.00412567	2	-0.00653446	-0.661973	2.01279e-06	1.14984
2	1	0	1	1	158.401	0.523062	0.522858	0.00424134	2	-0.00653154	-0.661731	2.21762e-06	1.18459
2	1	0	0	1	159.101	0.55807	0.557845	0.00440176	2	-0.0065285	-0.66339	2.4555e-06	1.22123
2	1	0	1	1	159.802	0.593078	0.592816	0.00462508	2	-0.00652532	-0.663856	2.74182e-06	1.25667
2	1	0	0	1	160.502	0.628087	0.627888	0.00485285	2	-0.00652199	-0.664324	3.04705e-06	1.29221
2	1	0	1	1	161.202	0.663095	0.662882	0.00506029	2	-0.00651851	-0.665505	3.35437e-06	1.32839
2	1	0	1	1	161.902	0.698103	0.697869	0.00530355	2	-0.00651487	-0.666788	3.70118e-06	1.36466
2	1	0	0	1	162.602	0.733111	0.732846	0.00559633	2	-0.00651106	-0.666693	4.10124e-06	1.39954
2	1	0	1	1	163.302	0.76812	0.767839	0.00587197	2	-0.00650704	-0.668507	4.50873e-06	1.43635
2	1	0	0	1	164.003	0.803128	0.802937	0.00614703	2	-0.00650283	-0.66986	4.93567e-06	1.4728
2	1	0	1	1	164.703	0.838136	0.837943	0.00653469	2	-0.00649839	-0.67001	5.4757e-06	1.50795
2	1	0	0	1	165.403	0.873144	0.872911	0.00697935	2	-0.00649366	-0.671938	6.09235e-06	1.54485
2	1	0	0	1	166.103	0.908152	0.907949	0.00747767	2	-0.00648859	-0.675046	6.78934e-06	1.58299
2	1	0	1	1	166.803	0.943161	0.942956	0.00804571	2	-0.00648315	-0.67747	7.58676e-06	1.62043
2	1	0	0	1	167.503	0.978169	0.977986	0.00870537	2	-0.00647728	-0.678841	8.51373e-06	1.65683
2	1	0	1	1	168.204	1.01318	1.01299	0.00943563	2	-0.00647093	-0.682047	9.5582e-06	1.69504
2	1	0	0	1	168.904	1.04819	1.04797	0.0102352	2	-0.00646404	-0.686422	1.07262e-05	1.7344
2	1	0	1	1	169.636	1.08479	1.0846	0.0111833	2	-0.0064562	-0.688466	1.21293e-05	1.77306
2	1	0	1	1	170.336	1.1198	1.11961	0.0122751	2	-0.006448	-0.693688	1.37433e-05	1.8133
2	1	0	0	1	171.036	1.15481	1.15456	0.0134671	2	-0.00643896	-0.699532	1.55485e-05	1.85409
2	1	0	1	1	171.736	1.18982	1.18963	0.0149248	2	-0.00642902	-0.703721	1.7755e-05	1.89335
2	0	0	0	1	172.411	1.17642	1.1762	0.011071	2	-0.00641989	-0.691949	1.30218e-05	1.86815
2	0	0	1	1	173.111	1.14141	1.14118	0.00773523	2	-0.00641342	-0.677299	8.82725e-06	1.81847
2	0	0	0	1	173.811	1.1064	1.10622	0.00565904	2	-0.00640879	-0.665579	6.26016e-06	1.7718
2	0	0	1	1	174.544	1.06979	1.06958	0.00421826	2	-0.00640521	-0.656749	4.51178e-06	1.72633
2	0	0	0	1	175.244	1.03478	1.0346	0.00323671	2	-0.00640261	-0.651082	3.34869e-06	1.68568
2	0	0	0	1	175.944	0.999774	0.99957	0.00249316	2	-0.00640063	-0.644928	2.49209e-06	1.6445
2	0	0	1	1	176.644	0.964766	0.964587	0.00194442	2	-0.00639909	-0.639456	1.87556e-06	1.60404
2	0	0	0	1	177.344	0.929758	0.929576	0.00148707	2	-0.00639791	-0.636232	1.38234e-06	1.56581
2	0	0	1	1	178.044	0.894749	0.894527	0.0011226	2	-0.00639701	-0.633706	1.0042e-06	1.52823
2	0	0	0	1	178.745	0.859741	0.859543	0.000813633	2	-0.00639633	-0.631824	6.99353e-07	1.49137
2	0	0	1	1	179.445	0.824733	0.824525	0.00056562	2	-0.00639585	-0.630703	4.66368e-07	1.45523
2	0	0	1	1	180.145	0.789725	0.789511	0.000338457	2	-0.00639554	-0.629832	2.67216e-07	1.41934
2	0	0	0	1	180.845	0.754716	0.754476	0.000142982	2	-0.00639539	-0.626978	1.07876e-07	1.38145
2	0	0	1	1	181.545	0.719708	0.719489	-3.21802e-05	2	-0.00639536	-0.625571	-2.31533e-08	1.34506
2	0	0	0	1	182.245	0.6847	0.684443	-0.000218347	2	-0.00639546	-0.623981	-1.49446e-07	1.30842
2	0	0	1	1	182.946	0.649692	0.649433	-0.000344093	2	-0.00639566	-0.623635	-2.23465e-07	1.27307
2	0	0	0	1	183.646	0.614683	0.614455	-0.000468038	2	-0.00639595	-0.622494	-2.87588e-07	1.23695
2	0	0	0	1	184.346	0.579675	0.579477	-0.000617286	2	-0.00639635	-0.620955	-3.57703e-07	1.20043
2	0	0	1	1	185.046	0.544667	0.544417	-0.000741731	2	-0.00639683	-0.622221	-4.03811e-07	1.16664
2	0	0	0	1	185.746	0.509659	0.509405	-0.000859548	2	-0.0063974	-0.61899	-4.37858e-07	1.12839
2	0	0	1	1	186.446	0.474651	0.474402	-0.000981042	2	-0.00639805	-0.617985	-4.65408e-07	1.09239
2	0	0	0	1	187.147	0.439642	0.439448	-0.00112075	2	-0.00639879	-0.616824	-4.92513e-07	1.05627
2	0	0	0	1	187.847	0.404634	0.404296	-0.0012272	2	-0.00639961	-0.615729	-4.96152e-07	1.02002
2	0	0	1	1	188.547	0.369626	0.369307	-0.00134347	2	-0.00640052	-0.614062	-4.96152e-07	0.983369
2	0	0	0	1	189.247	0.334618	0.334323	-0.00147657	2	-0.00640151	-0.612433	-4.9365e-07	0.946756
2	0	0	1	1	189.947	0.299609	0.299298	-0.0016072	2	-0.00640259	-0.610957	-4.8103e-07	0.910255
2	0	0	0	1	190.647	0.264601	0.264313	-0.0017585	2	-0.00640378	-0.608091	-4.64793e-07	0.872404
2	0	0	1	1	191.348	0.229593	0.229288	-0.00189174	2	-0.00640507	-0.606965	-4.33754e-07	0.836253
2	0	0	1	1	192.048	0.194585	0.194343	-0.00204723	2	-0.00640646	-0.606825	-3.97866e-07	0.801168
2	0	0	0	1	192.748	0.159577	0.15932	-0.00224616	2	-0.00640797	-0.605689	-3.57858e-07	0.765009
2	0	0	1	1	193.448	0.124568	0.124243	-0.00240159	2	-0.0064096	-0.602682	-2.98382e-07	0.726925
2	0	0	0	1	194.148	0.0895601	0.0892667	-0.00259989	2	-0.00641137	-0.600762	-2.32084e-07	0.690029
2	0	0	1	1	194.848	0.0545519	0.0542222	-0.00280056	2	-0.00641327	-0.597596	-1.51853e-07	0.651818
2	0	0	0	1	195.549	0.0195436	0.01922	-0.00297657	2	-0.0064153	-0.594116	-5.72097e-08	0.613336
2	0	0	0	1	196.249	-0.0154646	-0.0158076	-0.00313931	2	-0.00641746	-0.593004	4.96249e-08	0.577196
2	0	0	1	1	196.949	-0.0504728	-0.0507981	-0.00330143	2	-0.00641973	-0.591449	1.67706e-07	0.540651
2	0	0	0	1	197.649	-0.0854811	-0.0858437	-0.00350636	2	-0.00642212	-0.58895	3.00999e-07	0.503106
2	0	0	1	1	198.349	-0.120489	-0.120813	-0.00364664	2	-0.00642463	-0.587785	4.40561e-07	0.466972
2	0	0	0	1	199.049	-0.155498	-0.155793	-0.00376958	2	-0.00642722	-0.586661	5.87273e-07	0.430868
2	0	0	0	1	199.749	-0.190506	-0.190762	-0.00389436	2	-0.00642991	-0.58475	7.42897e-07	0.393987
2	0	0	1	1	200.45	-0.225514	-0.225761	-0.00405911	2	-0.00643269	-0.582948	9.1639e-07	0.357187
2	0	0	0	1	201.15	-0.260522	-0.260813	-0.00437263	2	-0.00643565	-0.580097	1.14044e-06	0.319284
2	0	0	1	1	201.85	-0.295531	-0.29581	-0.00480562	2	-0.00643887	-0.575432	1.42155e-06	0.279621
2	0	0	0	1	202.55	-0.330539	-0.330793	-0.00547579	2	-0.00644247	-0.568202	1.81135e-06	0.237409
2	0	0	1	1	203.25	-0.365547	-0.365795	-0.00637768	2	-0.00644661	-0.557777	2.33293e-06	0.191981
2	0	0	1	1	203.95	-0.400555	-0.400825	-0.0073771	2	-0.00645142	-0.545177	2.95693e-06	0.144352
2	0	0	0	1	204.651	-0.435563	-0.435887	-0.00851092	2	-0.00645697	-0.531563	3.7098e-06	0.0956764
2	0	0	1	1	205.351	-0.470572	-0.470945	-0.00996906	2	-0.00646342	-0.512848	4.69488e-06	0.0419026
2	0	0	0	1	206.083	-0.50718	-0.507525	-0.0119265	2	-0.00647142	-0.486807	6.05301e-06	-0.0207184
2	0	0	1	1	206.783	-0.542189	-0.542505	-0.014445	2	-0.00648062	-0.446995	7.83647e-06	-0.0955095
2	0	0	0	1	207.483	-0.577197	-0.577524	-0.0175215	2	-0.0064918	-0.392815	1.01191e-05	-0.184709
2	0	0	0	1	208.183	-0.612205	-0.612505	-0.0211212	2	-0.0065053	-0.313373	1.29369e-05	-0.299132
2	0	0	1	1	208.884	-0.647213	-0.647492	-0.025653	2	-0.00652163	-0.212188	1.66101e-05	-0.435305
2	0	0	0	1	209.584	-0.682222	-0.682555	-0.0309427	2	-0.00654139	-0.0914095	2.11201e-05	-0.591145
2	0	0	1	1	210.284	-0.71723	-0.71752	-0.0365505	2	-0.006565	0.0416123	2.62257e-05	-0.759132
2	0	0	0	1	210.984	-0.752238	-0.752512	-0.0427849	2	-0.0065928	0.181646	3.21961e-05	-0.934158
2	0	0	0	1	211.684	-0.787247	-0.787556	-0.0499134	2	-0.00662524	0.313506	3.93096e-05	-1.10106
2	0	0	1	1	212.384	-0.822255	-0.822596	-0.0573269	2	-0.00666273	0.440864	4.71569e-05	-1.26346
2	0	0	0	1	213.085	-0.857263	-0.857584	-0.064542	2	-0.00670544	0.557221	5.53501e-05	-1.4148
2	0	0	1	1	213.785	-0.892271	-0.892599	-0.0725607	2	-0.00675345	0.657035	6.47676e-05	-1.54963
2	0	0	0	1	214.485	-0.927279	-0.927601	-0.0804337	2	-0.00680696	0.748057	7.46104e-05	-1.67566
2	0	0	1	1	215.185	-0.962287	-0.962568	-0.0874112	2	-0.00686562	0.820172	8.41392e-05	-1.78274
2	0	0	1	1	215.885	-0.997296	-0.997565	-0.0943111	2	-0.00692949	0.883865	9.40814e-05	-1.88143
2	0	0	0	1	216.585	-1.0323	-1.03254	-0.102251	2	-0.00699847	0.943381	0.000105579	-1.97592
2	0	0	1	1	217.316	-1.06881	-1.06909	-0.10877	2	-0.00707547	0.984828	0.000116284	-2.05391
2	0	0	0	1	218.016	-1.10382	-1.10423	-0.114741	2	-0.0071539	1.03114	0.000126701	-2.13537
2	0	0	1	1	218.716	-1.13883	-1.13914	-0.121246	2	-0.00723668	1.0512	0.000138117	-2.19034
2	0	0	0	1	219.416	-1.17384	-1.17411	-0.126075	2	-0.00732311	1.07553	0.000148026	-2.24964
2	0	0	0	1	220.116	-1.20885	-1.20912	-0.130482	2	-0.00741297	1.10445	0.000157769	-2.31357
2	0	0	1	1	220.816	-1.24385	-1.24421	-0.135364	2	-0.00750597	1.09192	0.000168421	-2.33613
2	0	0	0	1	221.517	-1.27886	-1.27922	-0.139545	2	-0.00760226	1.09802	0.000178509	-2.37725
2	0	0	1	1	222.217	-1.31387	-1.31422	-0.142406	2	-0.00770096	1.08329	0.000187153	-2.39751
2	0	0	0	1	222.917	-1.34888	-1.34919	-0.14549	2	-0.00780191	1.0866	0.000196294	-2.43579
2	0	0	1	1	223.617	-1.38389	-1.38419	-0.148585	2	-0.00790493	1.09781	0.000205669	-2.482
2	0	0	1	1	224.317	-1.4189	-1.41924	-0.150625	2	-0.00800963	1.10084	0.000213773	-2.52008
2	0	0	0	1	225.017	-1.4539	-1.45421	-0.152124	2	-0.0081158	1.08911	0.000221221	-2.54332
2	0	0	1	1	225.718	-1.48891	-1.48928	-0.154913	2	-0.0082233	1.08681	0.000230708	-2.57609
2	0	0	0	1	226.418	-1.52392	-1.52421	-0.156433	2	-0.008332	1.02169	0.000238436	-2.5459
2	0	0	1	1	227.118	-1.55893	-1.55926	-0.157029	2	-0.00844183	1.07498	0.000244849	-2.63424
2	0	0	1	1	227.818	-1.59394	-1.5942	-0.158751	2	-0.00855242	1.09409	0.000253081	-2.68829
2	0	0	0	1	228.518	-1.62894	-1.62918	-0.160213	2	-0.00866398	1.10389	0.000261016	-2.73307
2	0	0	1	1	229.218	-1.66395	-1.66422	-0.161378	2	-0.00877646	1.08344	0.000268568	-2.74766
2	0	0	0	1	229.919	-1.69896	-1.69932	-0.161959	2	-0.00888989	1.09974	0.00027522	-2.79906
2	0	0	1	1	230.619	-1.73397	-1.73427	-0.164432	2	-0.00900416	1.10274	0.00028517	-2.83701
2	0	0	0	1	231.319	-1.76898	-1.76929	-0.165581	2	-0.00911957	1.10486	0.00029296	-2.87414
2	0	0	0	1	232.019	-1.80399	-1.80423	-0.166321	2	-0.0092359	1.10528	0.00030008	-2.9095
2	0	0	1	1	232.719	-1.83899	-1.83923	-0.169453	2	-0.00935336	1.05693	0.000311662	-2.89616
2	0	0	0	1	233.419	-1.874	-1.87422	-0.171397	2	-0.00947221	1.11157	0.000321235	-2.98579
2	0	0	1	1	234.12	-1.90901	-1.90929	-0.173306	2	-0.00959286	1.05361	0.000330892	-2.9629
2	0	0	0	1	234.82	-1.94402	-1.94424	-0.176295	2	-0.00971542	1.09808	0.00034276	-3.04232
2	0	0	1	1	235.52	-1.97903	-1.97921	-0.180106	2	-0.00983997	1.11259	0.000356469	-3.09181
2	1	0	0	0	236.191	-1.98743	-1.98763	-0.177165	2	-0.00996068	1.09937	0.00035214	-3.087
2	1	0	1	0	236.891	-1.95242	-1.9526	-0.16977	2	-0.010082	0.99323	0.000331494	-2.94583
2	1	0	0	0	237.591	-1.91741	-1.91762	-0.16549	2	-0.0101997	0.933261	0.000317347	-2.85089
2	1	0	1	0	238.291	-1.8824	-1.88259	-0.162538	2	-0.0103143	0.904687	0.000305993	-2.78728
2	1	0	0	0	238.991	-1.8474	-1.84766	-0.15943	2	-0.010427	0.876781	0.000294572	-2.72444
2	1	0	0	0	239.691	-1.81239	-1.81262	-0.157672	2	-0.0105379	0.800248	0.000285801	-2.61287
2	1	0	1	0	240.392	-1.77738	-1.77763	-0.156331	2	-0.0106479	0.727821	0.000277897	-2.50545
2	1	0	0	0	241.092	-1.74237	-1.74264	-0.154495	2	-0.0107565	0.630863	0.000269229	-2.37351
2	1	0	1	0	241.792	-1.70736	-1.70765	-0.152553	2	-0.0108644	0.609607	0.000260507	-2.31726
2	1	0	0	0	242.492	-1.67235	-1.67266	-0.152169	2	-0.0109711	0.532404	0.000254526	-2.20506
2	1	0	0	0	243.192	-1.63735	-1.63761	-0.151091	2	-0.0110769	0.634482	0.000247428	-2.27209
2	1	0	1	0	243.892	-1.60234	-1.60262	-0.148812	2	-0.0111819	0.597722	0.000238489	-2.20034
2	1	0	0	0	244.593	-1.56733	-1.56761	-0.14755	2	-0.0112859	0.481844	0.000231301	-2.04945
2	1	0	1	0	245.293	-1.53232	-1.53261	-0.146647	2	-0.0113888	0.44035	0.000224753	-1.97296
2	1	0	0	0	245.993	-1.49731	-1.4976	-0.144796	2	-0.0114906	0.424056	0.000216847	-1.92165
2	1	0	1	0	246.693	-1.46231	-1.46259	-0.142002	2	-0.0115912	0.441115	0.00020769	-1.9037
2	1	0	1	0	247.393	-1.4273	-1.42761	-0.140376	2	-0.0116901	0.458361	0.000200402	-1.88597
2	1	0	0	0	248.093	-1.39229	-1.39263	-0.136983	2	-0.011787	0.47913	0.000190767	-1.87176
2	1	0	1	0	248.794	-1.35728	-1.35757	-0.132633	2	-0.0118816	0.445826	0.000180058	-1.8034
2	1	0	0	0	249.494	-1.32227	-1.32258	-0.128896	2	-0.0119734	0.43032	0.000170475	-1.7529
2	1	0	1	0	250.194	-1.28726	-1.28762	-0.124985	2	-0.0120624	0.5195	0.000160933	-1.80712
2	1	0	0	0	250.894	-1.25226	-1.25258	-0.119318	2	-0.0121479	0.697773	0.000149455	-1.95035
2	1	0	0	0	251.594	-1.21725	-1.21753	-0.112838	2	-0.0122293	0.889902	0.000137384	-2.10743
2	1	0	1	0	252.294	-1.18224	-1.18253	-0.106832	2	-0.0123062	0.935103	0.000126332	-2.11763
2	1	0	0	0	252.995	-1.14723	-1.14747	-0.0996232	2	-0.0123783	0.910316	0.000114315	-2.05779
2	1	0	1	0	253.695	-1.11222	-1.11253	-0.0916659	2	-0.0124453	0.877223	0.000101981	-1.98975
2	1	0	0	0	254.395	-1.07721	-1.0775	-0.0844451	2	-0.012507	0.590516	9.09897e-05	-1.66802
2	1	0	0	0	255.095	-1.04221	-1.04246	-0.0765055	2	-0.0125632	0.177766	7.97543e-05	-1.22023
2	1	0	1	0	255.795	-1.0072	-1.0075	-0.0681887	2	-0.0126138	-0.0101168	6.87002e-05	-0.997385
2	1	0	0	0	256.471	-0.97339	-0.973704	-0.0606266	3	-0.0126575	-0.174402	5.90324e-05	-0.799302
2	1	0	1	0	257.172	-0.938382	-0.938737	-0.0532356	3	-0.0126973	-0.28962	4.99742e-05	-0.649117
2	1	0	0	0	257.904	-0.901773	-0.902064	-0.0453864	3	-0.0127335	-0.395765	4.09415e-05	-0.5063
2	1	0	1	0	258.604	-0.866765	-0.867096	-0.0380243	3	-0.0127627	-0.46326	3.29707e-05	-0.403836
2	1	0	1	0	259.304	-0.831757	-0.832061	-0.0316793	3	-0.012787	-0.511433	2.63591e-05	-0.320628
2	1	0	0	0	260.004	-0.796749	-0.797023	-0.0257472	3	-0.0128071	-0.547577	2.05211e-05	-0.249445
2	1	0	1	0	260.704	-0.76174	-0.762033	-0.0204347	3	-0.0128232	-0.57478	1.55719e-05	-0.187253
2	1	0	0	0	261.405	-0.726732	-0.727012	-0.016012	3	-0.0128359	-0.596426	1.16409e-05	-0.130586
2	1	0	1	0	262.105	-0.691724	-0.692012	-0.0121954	3	-0.0128457	-0.611714	8.43936e-06	-0.0802978
2	1	0	0	0	262.805	-0.656716	-0.657016	-0.00921941	3	-0.0128531	-0.617004	6.0573e-06	-0.0400116
2	1	0	0	0	263.505	-0.621707	-0.621986	-0.00701599	3	-0.0128587	-0.624233	4.36385e-06	0.00224721
2	1	0	1	0	264.205	-0.586699	-0.587048	-0.00536958	3	-0.012863	-0.624438	3.1522e-06	0.0373905
2	1	0	0	0	264.937	-0.55009	-0.550401	-0.00412871	3	-0.0128665	-0.624594	2.27245e-06	0.0741934
2	1	0	1	0	265.638	-0.515082	-0.515425	-0.00341361	3	-0.0128691	-0.623951	1.75946e-06	0.108526
2	1	0	0	0	266.338	-0.480074	-0.480365	-0.00308481	3	-0.0128713	-0.612366	1.48184e-06	0.132001
2	1	0	1	0	267.038	-0.445066	-0.445345	-0.00285109	3	-0.0128734	-0.636983	1.26972e-06	0.191638
2	1	0	1	0	267.738	-0.410057	-0.410377	-0.00240044	3	-0.0128752	-0.637027	9.85085e-07	0.226649
2	1	0	0	0	268.438	-0.375049	-0.375284	-0.00162867	3	-0.0128767	-0.632127	6.11214e-07	0.256843
2	1	0	1	0	269.138	-0.340041	-0.340269	-0.000730334	3	-0.0128775	-0.639035	2.4851e-07	0.298766
2	1	0	0	0	269.839	-0.305033	-0.305265	0.000247146	3	-0.0128776	-0.643923	-7.54451e-08	0.338658
2	1	0	1	0	270.539	-0.270025	-0.270309	0.00107638	3	-0.0128771	-0.646044	-2.90956e-07	0.375735
2	1	0	1	0	271.239	-0.235015	-0.235273	0.00158124	3	-0.0128762	-0.646425	-3.72022e-07	0.411152
2	1	0	0	0	271.939	-0.200008	-0.200276	0.00189273	3	-0.012875	-0.640788	-3.79069e-07	0.440512
2	1	0	1	0	272.639	-0.165	-0.16533	0.00216744	3	-0.0128735	-0.646937	-3.58344e-07	0.481607
2	1	0	0	0	273.339	-0.129992	-0.13029	0.00232127	3	-0.0128719	-0.648776	-3.02438e-07	0.518486
2	1	0	1	0	274.04	-0.0949833	-0.0952678	0.00240956	3	-0.0128703	-0.649491	-2.29554e-07	0.554223
2	1	0	0	0	274.74	-0.0599751	-0.0602773	0.00244391	3	-0.0128685	-0.650436	-1.47312e-07	0.590159
2	1	0	0	0	275.44	-0.0249668	-0.0252561	0.00255184	3	-0.0128668	-0.648795	-6.44494e-08	0.623538
2	1	0	1	0	276.14	0.0100414	0.00982562	0.00255188	3	-0.012865	-0.648811	2.50738e-08	0.658637
2	1	0	0	0	276.84	0.0450496	0.0447366	0.00251662	3	-0.0128632	-0.648343	1.12585e-07	0.693079
2	1	0	1	0	277.54	0.0800578	0.0797886	0.00256881	3	-0.0128614	-0.647128	2.04962e-07	0.726917
2	1	0	0	0	278.241	0.115066	0.114782	0.00259818	3	-0.0128596	-0.64665	2.98225e-07	0.761432
2	1	0	1	0	278.941	0.150074	0.149809	0.00264849	3	-0.0128578	-0.645232	3.96767e-07	0.795041
2	1	0	1	0	279.641	0.185083	0.184852	0.00276143	3	-0.0128559	-0.645498	5.10456e-07	0.830351
2	1	0	0	0	280.341	0.220091	0.219783	0.00290441	3	-0.0128539	-0.646686	6.38341e-07	0.866469
2	1	0	1	0	281.041	0.255099	0.25481	0.00303181	3	-0.0128518	-0.647644	7.72534e-07	0.902454
2	1	0	0	0	281.741	0.290107	0.289799	0.00316894	3	-0.0128496	-0.649131	9.18357e-07	0.93893
2	1	0	1	0	282.442	0.325115	0.324834	0.00336468	3	-0.0128473	-0.649055	1.09296e-06	0.97389
2	1	0	1	0	283.142	0.360123	0.359841	0.00346237	3	-0.0128449	-0.649452	1.2459e-06	1.00929
2	1	0	0	0	283.842	0.395132	0.394884	0.00360693	3	-0.0128425	-0.650397	1.42432e-06	1.04528
2	1	0	1	0	284.542	0.43014	0.429893	0.00377658	3	-0.0128399	-0.65085	1.62352e-06	1.08074
2	1	0	0	0	285.242	0.465148	0.464944	0.00397283	3	-0.0128371	-0.649467	1.84714e-06	1.11441
2	1	0	1	0	285.942	0.500157	0.499919	0.0041097	3	-0.0128343	-0.648259	2.05452e-06	1.14818
2	1	0	0	0	286.643	0.535165	0.53498	0.00428762	3	-0.0128313	-0.650092	2.29379e-06	1.18507
2	1	0	0	0	287.343	0.570173	0.569963	0.00449591	3	-0.0128283	-0.653177	2.5625e-06	1.22314
2	1	0	1	0	288.043	0.605181	0.605042	0.00466355	3	-0.0128251	-0.653882	2.82165e-06	1.25892
2	1	0	0	0	288.743	0.640189	0.639958	0.00487624	3	-0.0128217	-0.65646	3.12059e-06	1.29642
2	1	0	1	0	289.443	0.675198	0.67498	0.00513514	3	-0.0128182	-0.657536	3.46612e-06	1.33252
2	1	0	0	0	290.143	0.710206	0.709962	0.00534972	3	-0.0128145	-0.657801	3.79809e-06	1.36776
2	1	0	1	0	290.844	0.745214	0.744976	0.00562169	3	-0.0128107	-0.659628	4.18802e-06	1.4046
2	1	0	1	0	291.544	0.780222	0.779969	0.00590728	3	-0.0128066	-0.661643	4.60749e-06	1.44161
2	1	0	0	0	292.244	0.815231	0.815022	0.00621025	3	-0.0128024	-0.660187	5.06149e-06	1.47521
2	1	0	1	0	292.944	0.850239	0.850027	0.00656419	3	-0.0127979	-0.661657	5.57974e-06	1.51168
2	1	0	0	0	293.644	0.885247	0.885047	0.00699512	3	-0.0127931	-0.663798	6.19101e-06	1.54885
2	1	0	1	0	294.344	0.920255	0.920117	0.00752105	3	-0.0127881	-0.664309	6.92025e-06	1.58443
2	1	0	1	0	295.044	0.95526	0.9551	0.00812122	3	-0.0127826	-0.666704	7.75657e-06	1.6218
2	1	0	0	0	295.745	0.990272	0.9901	0.00878657	3	-0.0127767	-0.670901	8.69959e-06	1.661
2	1	0	1	0	296.445	1.02528	1.02504	0.00950328	3	-0.0127702	-0.674239	9.74129e-06	1.69928
2	1	0	0	0	297.177	1.06189	1.06166	0.0103889	3	-0.0127629	-0.677038	1.10295e-05	1.7387
2	1	0	1	0	297.877	1.0969	1.09672	0.0112926	3	-0.0127553	-0.681519	1.23848e-05	1.77824
2	1	0	0	0	298.577	1.1319	1.13174	0.0123702	3	-0.012747	-0.685564	1.39998e-05	1.8173
2	1	0	0	0	299.277	1.16691	1.16675	0.013722	3	-0.0127379	-0.69107	1.60102e-05	1.85782
2	0	0	0	0	299.95	1.19942	1.19923	0.0148243	3	-0.0127282	-0.69667	1.77777e-05	1.8959
2	0	0	1	0	300.65	1.16441	1.16424	0.00966696	3	-0.0127199	-0.678923	1.12547e-05	1.84317
2	0	0	1	0	301.35	1.1294	1.12923	0.00689185	3	-0.0127142	-0.662893	7.7825e-06	1.79212
2	0	0	0	0	302.051	1.0944	1.09423	0.00509741	3	-0.01271	-0.650375	5.57774e-06	1.7446
2	0	0	1	0	302.783	1.05779	1.05757	0.00381914	3	-0.0127068	-0.641129	4.03901e-06	1.6987
2	0	0	0	0	303.483	1.02278	1.02261	0.00294428	3	-0.0127045	-0.636899	3.01083e-06	1.6595
2	0	0	1	0	304.183	0.987771	0.987552	0.00229117	3	-0.0127027	-0.631514	2.26265e-06	1.61907
2	0	0	0	0	304.883	0.952763	0.952557	0.00175754	3	-0.0127013	-0.629259	1.67416e-06	1.58182
2	0	0	0	0	305.583	0.917755	0.917567	0.00134866	3	-0.0127002	-0.627051	1.23748e-06	1.54462
2	0	0	1	0	306.284	0.882746	0.882519	0.00102022	3	-0.0126994	-0.622962	9.00366e-07	1.50548
2	0	0	0	0	306.984	0.847738	0.84758	0.000727262	3	-0.0126988	-0.62082	6.16412e-07	1.4684
2	0	0	1	0	307.684	0.81273	0.812549	0.000495499	3	-0.0126984	-0.617809	4.02617e-07	1.43036
2	0	0	0	0	308.384	0.777722	0.777481	0.000275501	3	-0.0126981	-0.614016	2.14197e-07	1.3915
2	0	0	0	0	309.084	0.742712	0.74247	7.80055e-05	3	-0.012698	-0.612264	5.79168e-08	1.35473
2	0	0	1	0	309.784	0.707705	0.707459	-9.54184e-05	3	-0.012698	-0.612562	-6.75046e-08	1.32002
2	0	0	0	0	310.485	0.672697	0.672417	-0.000268068	3	-0.0126981	-0.61163	-1.80254e-07	1.28405
2	0	0	1	0	311.185	0.637689	0.637375	-0.000405912	3	-0.0126984	-0.60955	-2.58718e-07	1.24692
2	0	0	0	0	311.885	0.602681	0.602414	-0.000537306	3	-0.0126987	-0.609452	-3.23681e-07	1.21187
2	0	0	1	0	312.585	0.567672	0.5675	-0.000663882	3	-0.0126991	-0.608775	-3.76753e-07	1.17627
2	0	0	1	0	313.285	0.532664	0.532438	-0.000784726	3	-0.0126997	-0.605888	-4.17818e-07	1.13833
2	0	0	0	0	313.985	0.497656	0.497429	-0.00089829	3	-0.0127002	-0.604397	-4.46835e-07	1.10183
2	0	0	1	0	314.686	0.462648	0.462468	-0.00102931	3	-0.0127009	-0.599122	-4.76023e-07	1.06159
2	0	0	0	0	315.386	0.42764	0.427413	-0.00111856	3	-0.0127017	-0.600484	-4.78087e-07	1.0279
2	0	0	1	0	316.086	0.392631	0.392309	-0.00124075	3	-0.0127025	-0.598407	-4.86755e-07	0.990715
2	0	0	0	0	316.786	0.357623	0.357292	-0.00138241	3	-0.0127035	-0.59693	-4.93925e-07	0.954222
2	0	0	0	0	317.486	0.322615	0.322297	-0.00152428	3	-0.0127045	-0.596594	-4.91271e-07	0.918891
2	0	0	1	0	318.186	0.287607	0.287343	-0.0016562	3	-0.0127056	-0.591659	-4.75898e-07	0.879002
2	0	0	0	0	318.887	0.252598	0.25232	-0.00178605	3	-0.0127068	-0.591006	-4.50656e-07	0.843326
2	0	0	1	0	319.587	0.21759	0.217258	-0.00194866	3	-0.0127081	-0.591551	-4.23361e-07	0.808808
2	0	0	0	0	320.287	0.182582	0.182309	-0.00210075	3	-0.0127095	-0.589425	-3.82985e-07	0.771733
2	0	0	0	0	320.987	0.147575	0.147269	-0.00228464	3	-0.0127111	-0.586851	-3.36458e-07	0.73412
2	0	0	1	0	321.687	0.112565	0.112241	-0.00244552	3	-0.0127128	-0.58283	-2.74486e-07	0.695071
2	0	0	0	0	322.387	0.0775573	0.077265	-0.00263688	3	-0.0127145	-0.582241	-2.03738e-07	0.659506
2	0	0	1	0	323.088	0.042549	0.0422459	-0.00282163	3	-0.0127165	-0.579813	-1.19202e-07	0.622059
2	0	0	0	0	323.788	0.00754081	0.00730524	-0.00298163	3	-0.0127185	-0.57395	-2.17816e-08	0.581255
2	0	0	1	0	324.488	-0.0274674	-0.0277658	-0.00315143	3	-0.0127207	-0.576953	8.7502e-08	0.549187
2	0	0	1	0	325.188	-0.0624757	-0.0628115	-0.00332878	3	-0.0127229	-0.575359	2.09086e-07	0.512547
2	0	0	0	0	325.888	-0.0974839	-0.0978041	-0.00351533	3	-0.0127253	-0.573028	3.43813e-07	0.475224
2	0	0	1	0	326.588	-0.132492	-0.132799	-0.00362991	3	-0.0127278	-0.568282	4.82048e-07	0.435483
2	0	0	0	0	327.289	-0.1675	-0.167849	-0.00374924	3	-0.0127304	-0.568401	6.29304e-07	0.400552
2	0	0	1	0	327.989	-0.202509	-0.202783	-0.00390887	3	-0.0127331	-0.565206	7.92652e-07	0.362423
2	0	0	0	0	328.689	-0.237517	-0.237751	-0.00412158	3	-0.0127359	-0.56057	9.7991e-07	0.322819
2	0	0	0	0	329.389	-0.272525	-0.272787	-0.00449433	3	-0.0127389	-0.553359	1.226e-06	0.280572
2	0	0	1	0	330.089	-0.307533	-0.307822	-0.00499564	3	-0.0127422	-0.553376	1.53777e-06	0.245554
2	0	0	0	0	330.789	-0.342542	-0.342804	-0.00571244	3	-0.012746	-0.547501	1.95825e-06	0.204697
2	0	0	1	0	331.49	-0.37755	-0.37783	-0.00660482	3	-0.0127503	-0.53698	2.4955e-06	0.15915
2	0	0	0	0	332.19	-0.412558	-0.41285	-0.00763187	3	-0.0127553	-0.522007	3.15082e-06	0.109157
2	0	0	0	0	332.89	-0.447564	-0.447889	-0.00892592	3	-0.0127611	-0.501894	3.99782e-06	0.0540051
2	0	0	1	0	333.622	-0.484175	-0.484534	-0.0105956	3	-0.0127682	-0.47415	5.1339e-06	-0.0103836
2	0	0	0	0	334.322	-0.519183	-0.519568	-0.0127492	3	-0.0127764	-0.443592	6.6241e-06	-0.0759763
2	0	0	1	0	335.022	-0.554191	-0.554563	-0.0154788	3	-0.0127862	-0.378751	8.58398e-06	-0.175812
2	0	0	0	0	335.723	-0.5892	-0.589547	-0.0187379	3	-0.0127982	-0.305481	1.10469e-05	-0.284066
2	0	0	1	0	336.423	-0.624208	-0.624515	-0.0226437	3	-0.0128127	-0.200018	1.41413e-05	-0.424497
2	0	0	1	0	337.123	-0.659216	-0.659537	-0.0273418	3	-0.0128301	-0.06793	1.80329e-05	-0.591607
2	0	0	0	0	337.823	-0.694224	-0.694554	-0.0325237	3	-0.0128511	0.0708976	2.25895e-05	-0.765452
2	0	0	1	0	338.523	-0.729233	-0.729516	-0.0383545	3	-0.0128759	0.222441	2.79803e-05	-0.951957
2	0	0	0	0	339.223	-0.764241	-0.764557	-0.0454983	3	-0.0129053	0.341902	3.47861e-05	-1.10646
2	0	0	1	0	339.924	-0.799249	-0.799539	-0.0524108	3	-0.0129395	0.484919	4.19044e-05	-1.28446
2	0	0	0	0	340.624	-0.834257	-0.834599	-0.0597366	3	-0.0129788	0.592397	4.98561e-05	-1.427
2	0	0	0	0	341.324	-0.869266	-0.869552	-0.0677424	3	-0.0130234	0.70561	5.89055e-05	-1.57516
2	0	0	1	0	342.024	-0.904274	-0.904563	-0.0752944	3	-0.0130734	0.803414	6.81085e-05	-1.70798
2	0	0	0	0	342.724	-0.939282	-0.939569	-0.0827678	3	-0.0131288	0.899282	7.77661e-05	-1.83885
2	0	0	1	0	343.424	-0.97429	-0.974603	-0.0903118	3	-0.0131895	0.97912	8.80181e-05	-1.95372
2	0	0	0	0	344.125	-1.0093	-1.0096	-0.098053	3	-0.0132555	1.02544	9.8994e-05	-2.03504
2	0	0	1	0	344.855	-1.04581	-1.04613	-0.104784	3	-0.0133295	1.0892	0.000109617	-2.13533
2	0	0	1	0	345.555	-1.08082	-1.08117	-0.111613	3	-0.0134053	1.13243	0.000120672	-2.2136
2	0	0	0	0	346.255	-1.11582	-1.1161	-0.11812	3	-0.0134854	1.15589	0.000131835	-2.27199
2	0	0	1	0	346.955	-1.15083	-1.15108	-0.122894	3	-0.0135698	1.18219	0.000141461	-2.33327
2	0	0	0	0	347.655	-1.18584	-1.18613	-0.127763	3	-0.0136577	1.18014	0.000151544	-2.36627
2	0	0	1	0	348.356	-1.22085	-1.22112	-0.133008	3	-0.013749	1.21991	0.000162418	-2.44103
2	0	0	0	0	349.056	-1.25586	-1.25618	-0.136316	3	-0.0138432	1.25766	0.000171237	-2.51384
2	0	0	0	0	349.756	-1.29086	-1.2912	-0.139347	3	-0.01394	1.26967	0.000179924	-2.56086
2	0	0	1	0	350.456	-1.32587	-1.3262	-0.144112	3	-0.0140392	1.28227	0.00019112	-2.60847
2	0	0	0	0	351.156	-1.36088	-1.3613	-0.146679	3	-0.0141407	1.29847	0.000199674	-2.65977
2	0	0	1	0	351.856	-1.39589	-1.39623	-0.148327	3	-0.0142441	1.31922	0.000207099	-2.71546
2	0	0	0	0	352.557	-1.4309	-1.43121	-0.150789	3	-0.014349	1.32314	0.00021581	-2.75435
2	0	0	0	0	353.257	-1.46591	-1.46623	-0.153443	3	-0.0144556	1.32877	0.000224982	-2.795
2	0	0	1	0	353.957	-1.50091	-1.5012	-0.154491	3	-0.0145632	1.34587	0.000231922	-2.84706
2	0	0	0	0	354.657	-1.53592	-1.53622	-0.155692	3	-0.0146721	1.34911	0.000239177	-2.88533
2	0	0	1	0	355.357	-1.57093	-1.57124	-0.15811	3	-0.0147819	1.34675	0.000248429	-2.91799
2	0	0	0	0	356.057	-1.60594	-1.60627	-0.159002	3	-0.0148928	1.35642	0.0002554	-2.96269
2	0	0	1	0	356.758	-1.64095	-1.64124	-0.159947	3	-0.0150045	1.37158	0.000262511	-3.01282
2	0	0	1	0	357.458	-1.67596	-1.67624	-0.161654	3	-0.0151169	1.38823	0.000270971	-3.06448
2	0	0	0	0	358.158	-1.71096	-1.71124	-0.162809	3	-0.0152302	1.39558	0.000278605	-3.10683
2	0	0	1	0	358.858	-1.74597	-1.74626	-0.164076	3	-0.0153448	1.38472	0.00028652	-3.13099
2	0	0	0	0	359.558	-1.78098	-1.7813	-0.165487	3	-0.0154605	1.38816	0.000294781	-3.16946
2	0	0	1	0	360.258	-1.81599	-1.81627	-0.168345	3	-0.0155772	1.38191	0.00030576	-3.19818
2	0	0	0	0	360.959	-1.851	-1.85123	-0.169695	3	-0.0156952	1.40063	0.000314144	-3.25186
2	0	0	0	0	361.659	-1.886	-1.88625	-0.17098	3	-0.0158145	1.41322	0.000322512	-3.29948
2	0	0	1	0	362.359	-1.92101	-1.92121	-0.17421	3	-0.0159354	1.40673	0.000334694	-3.32794
2	0	0	0	0	363.059	-1.95602	-1.95622	-0.177634	3	-0.0160584	1.41941	0.00034749	-3.37563
2	0	0	1	0	363.759	-1.99103	-1.99121	-0.180859	3	-0.0161837	1.40392	0.000360128	-3.39514
2	1	0	1	1	364.43	-1.97543	-1.97563	-0.175139	3	-0.0163037	1.36236	0.00034601	-3.33799
2	1	0	1	1	365.13	-1.94042	-1.9406	-0.169382	3	-0.0164239	1.32856	0.000328703	-3.26917
2	1	0	0	1	365.83	-1.90541	-1.90562	-0.164858	3	-0.0165405	1.3304	0.000314156	-3.23601
2	1	0	1	1	366.53	-1.8704	-1.87063	-0.160457	3	-0.0166544	1.3614	0.000300156	-3.23203
2	1	0	0	1	367.231	-1.83539	-1.83568	-0.158691	3	-0.0167664	1.33867	0.000291306	-3.17436
2	1	0	1	1	367.931	-1.80038	-1.80061	-0.157404	3	-0.0168769	1.31467	0.000283424	-3.11528
2	1	0	1	1	368.631	-1.76538	-1.76567	-0.154989	3	-0.0169862	1.30938	0.000273659	-3.07505
2	1	0	0	1	369.331	-1.73037	-1.73068	-0.153509	3	-0.0170944	1.32537	0.000265675	-3.05606
2	1	0	1	1	370.031	-1.69536	-1.69567	-0.152673	3	-0.0172017	1.32555	0.000258883	-3.02122
2	1	0	0	1	370.731	-1.66035	-1.66068	-0.151318	3	-0.0173082	1.18524	0.000251291	-2.84591
2	1	0	1	1	371.432	-1.62534	-1.6256	-0.149717	3	-0.0174136	1.22356	0.00024338	-2.84916
2	1	0	0	1	372.132	-1.59034	-1.59064	-0.149072	3	-0.0175183	1.19037	0.000237119	-2.781
2	1	0	0	1	372.832	-1.55533	-1.55558	-0.147525	3	-0.0176219	1.19063	0.000229488	-2.74622
2	1	0	1	1	373.532	-1.52032	-1.52056	-0.145648	3	-0.0177245	1.15075	0.000221467	-2.67132
2	1	0	0	1	374.232	-1.48531	-1.48559	-0.143849	3	-0.0178258	1.18428	0.000213701	-2.66987
2	1	0	1	1	374.932	-1.4503	-1.45065	-0.141613	3	-0.0179257	1.18063	0.000205431	-2.63128
2	1	0	0	1	375.633	-1.41529	-1.41559	-0.139213	3	-0.018024	1.1306	0.000197068	-2.54619
2	1	0	1	1	376.333	-1.38029	-1.3806	-0.135861	3	-0.0181203	1.07953	0.000187569	-2.46012
2	1	0	1	1	377.033	-1.34528	-1.34558	-0.132899	3	-0.0182143	1.04709	0.000178827	-2.39267
2	1	0	0	1	377.733	-1.31027	-1.3106	-0.128215	3	-0.0183055	0.9796	0.000168039	-2.2902
2	1	0	1	1	378.433	-1.27526	-1.27562	-0.123028	3	-0.0183935	0.935159	0.000156937	-2.21078
2	1	0	0	1	379.133	-1.24025	-1.24061	-0.117391	3	-0.0184777	0.778029	0.000145636	-2.01864
2	1	0	1	1	379.834	-1.20524	-1.20553	-0.111537	3	-0.018558	0.693686	0.000134461	-1.89921
2	1	0	1	1	380.534	-1.17023	-1.17053	-0.104022	3	-0.0186335	0.696292	0.000121761	-1.86682
2	1	0	0	1	381.234	-1.13523	-1.13552	-0.0969326	3	-0.018704	0.540491	0.000110069	-1.67601
2	1	0	1	1	381.934	-1.10022	-1.10047	-0.0900721	3	-0.0187695	0.433808	9.91216e-05	-1.53428
2	1	0	0	1	382.634	-1.06521	-1.06549	-0.0821213	3	-0.0188297	0.292605	8.74998e-05	-1.3581
2	1	0	1	1	383.334	-1.0302	-1.03052	-0.0738331	3	-0.0188843	0.102789	7.60869e-05	-1.13331
2	1	0	0	1	383.938	-0.999946	-1.00026	-0.0669824	3	-0.0189269	-0.027382	6.69998e-05	-0.972878