File: Zn_data/03112020_MnO2_RDE_50mVs_400rpm_ExtendedBounds_120mL_counter_C04_C03.mpt
EC-Lab ASCII FILE
Nb header lines : 61

Cyclic Voltammetry

Run on channel : 3 (SN 35515)
User :
CE vs. WE compliance from -10 V to 10 V
Electrode connection : standard
Ewe ctrl range : min = -2.50 V, max = 2.50 V
Safety Limits :
	Do not start on E overload
Acquisition started on : 03/11/2020 15:03:18
Technique started on : 03/11/2020 15:03:18
Saved on :
	File : 03112020_MnO2_RDE_50mVs_400rpm_ExtendedBounds_120mL_counter_C04_C03.mpr
	Directory : C:\Users\CESL\Documents\EC-Lab\Data\Undergrad\Katelyn\EChem\20200311\
	Host : 169.254.217.189
Device : VSP (SN 1724172417241724)
Address : USB
EC-Lab for windows v11.16 (software)
Internet server v11.16 (firmware)
Command interpretor v11.16 (firmware)
Electrode material : Au/Pd
Initial state :
Electrolyte : NaCl (0.2M)
Comments : Fe(CN)63-/Fe(CN)64- 5.10-3 M
Reference electrode : SCE Saturated Calomel Electrode (0.241 V)
Electrode surface area : 0.001 cm²
Characteristic mass : 0.001 g
Equivalent Weight : 0.000 g/eq.
Density : 0.000 g/cm3
Record Ece
Record Power
Cycle Definition : Charge/Discharge alternance
Ei (V)              -1.000
vs.                 Ref
dE/dt               50.000
dE/dt unit          mV/s
E1 (V)              1.200
vs.                 Ref
Step percent        50
N                   10
E range min (V)     -2.500
E range max (V)     2.500
I Range             Auto
I Range min         Unset
I Range max         Unset
I Range init        Unset
Bandwidth           5
E2 (V)              -2.000
vs.                 Ref
nc cycles           3
Reverse Scan        1
Ef (V)              -1.000
vs.                 Ref

Modify on : 03/11/2020 15:09
nc cycles           2

mode	ox/red	error	control changes	counter inc.	time/s	control/V	Ewe/V	<I>/mA	cycle number	(Q-Qo)/C	<Ece>/V	P/W	Ewe-Ece/V
2	1	0	0	0	0.000000000000000E+000	-0.997045	-0.997302	-0.159973	1	0.0000000E+000	-0.118275	0.000159542	-0.879026
2	1	0	0	0	0.711	-0.961487	-0.961861	-0.0691606	1	-6.53964e-05	-0.0292692	6.65228e-05	-0.932592
2	1	0	1	0	1.4312	-0.925479	-0.925852	-0.0581047	1	-0.000110586	0.000223302	5.37964e-05	-0.926076
2	1	0	0	0	2.1514	-0.88947	-0.889836	-0.0513199	1	-0.000149827	0.0207429	4.56663e-05	-0.910579
2	1	0	1	0	2.9036	-0.851861	-0.852199	-0.0452608	1	-0.000186122	0.0111474	3.85712e-05	-0.863347
2	1	0	0	0	3.6238	-0.815853	-0.816138	-0.0397785	1	-0.0002167	0.00162933	3.24648e-05	-0.817767
2	1	0	1	0	4.344	-0.779845	-0.780165	-0.0344069	1	-0.000243374	-0.0286564	2.68431e-05	-0.751508
2	1	0	0	0	5.0642	-0.743836	-0.744125	-0.0295107	1	-0.000266357	-0.0664638	2.19597e-05	-0.677662
2	1	0	0	0	5.7842	-0.707828	-0.708153	-0.0249612	1	-0.000285897	-0.116435	1.76763e-05	-0.591718
2	1	0	1	0	6.5044	-0.671819	-0.672165	-0.0209669	1	-0.000302391	-0.173154	1.40932e-05	-0.499011
2	1	0	0	0	7.2246	-0.635811	-0.636137	-0.0175691	1	-0.000316241	-0.254379	1.11763e-05	-0.381758
2	1	0	1	0	7.9448	-0.599802	-0.600145	-0.0146413	1	-0.000327815	-0.332493	8.78688e-06	-0.267652
2	1	0	0	0	8.665	-0.563794	-0.564125	-0.0123008	1	-0.000337486	-0.397301	6.93919e-06	-0.166824
2	1	0	1	0	9.3852	-0.527785	-0.528117	-0.0103366	1	-0.000345598	-0.44865	5.45893e-06	-0.0794669
2	1	0	1	0	10.1052	-0.491777	-0.49213	-0.00883266	1	-0.000352456	-0.484689	4.34682e-06	-0.00744128
2	1	0	0	0	10.8254	-0.455768	-0.456119	-0.00764878	1	-0.000358361	-0.505998	3.48875e-06	0.0498793
2	1	0	1	0	11.5456	-0.41976	-0.420126	-0.00665469	1	-0.000363506	-0.518757	2.79581e-06	0.0986314
2	1	0	0	0	12.2658	-0.383751	-0.384076	-0.00551972	1	-0.000367892	-0.533428	2.11999e-06	0.149352
2	1	0	1	0	13.018	-0.346142	-0.346421	-0.00409193	1	-0.000371506	-0.551121	1.41753e-06	0.2047
2	1	0	0	0	13.7382	-0.310134	-0.310401	-0.00267361	1	-0.000373922	-0.568869	8.29891e-07	0.258468
2	1	0	1	0	14.4584	-0.274126	-0.274366	-0.00144195	1	-0.000375372	-0.584138	3.95621e-07	0.309772
2	1	0	1	0	15.1784	-0.238117	-0.238357	-0.000550907	1	-0.000376057	-0.595915	1.31312e-07	0.357558
2	1	0	0	0	15.8986	-0.202109	-0.202439	4.75073e-05	1	-0.000376222	-0.601847	-9.61735e-09	0.399408
2	1	0	1	0	16.6188	-0.1661	-0.166402	0.000338944	1	-0.000376073	-0.606965	-5.64012e-08	0.440562
2	1	0	0	0	17.339	-0.130092	-0.130399	0.000491051	1	-0.000375752	-0.608908	-6.40327e-08	0.478509
2	1	0	1	0	18.0592	-0.0940831	-0.0943676	0.000617155	1	-0.000375335	-0.610674	-5.82395e-08	0.516307
2	1	0	0	0	18.7794	-0.0580746	-0.0584281	0.000678027	1	-0.000374858	-0.610778	-3.96159e-08	0.55235
2	1	0	0	0	19.4995	-0.0220706	-0.0223352	0.000769231	1	-0.000374339	-0.611727	-1.71809e-08	0.589391
2	1	0	1	0	20.2196	0.0139423	0.0136799	0.000774781	1	-0.000373785	-0.611746	1.05989e-08	0.625426
2	1	0	0	0	20.9398	0.0499508	0.0496596	0.000839311	1	-0.000373189	-0.612333	4.16799e-08	0.661992
2	1	0	1	0	21.66	0.0859592	0.0856829	0.00096187	1	-0.00037253	-0.613419	8.24158e-08	0.699102
2	1	0	0	0	22.3802	0.121968	0.121658	0.00108903	1	-0.000371785	-0.615168	1.3249e-07	0.736827
2	1	0	1	0	23.1004	0.157976	0.157695	0.00124292	1	-0.000370936	-0.616034	1.96003e-07	0.77373
2	1	0	0	0	23.8206	0.193985	0.193726	0.0013854	1	-0.000369981	-0.615959	2.68388e-07	0.809685
2	1	0	0	0	24.5406	0.229993	0.229664	0.0015159	1	-0.000368924	-0.617128	3.48148e-07	0.846793
2	1	0	1	0	25.2608	0.266002	0.265729	0.00167847	1	-0.000367765	-0.618715	4.46018e-07	0.884444
2	1	0	0	0	25.981	0.30201	0.301692	0.00179827	1	-0.000366512	-0.619542	5.42524e-07	0.921234
2	1	0	1	0	26.7012	0.338018	0.337724	0.00194645	1	-0.000365152	-0.620532	6.57362e-07	0.958255
2	1	0	0	0	27.4214	0.374027	0.373726	0.00215109	1	-0.000363662	-0.622943	8.03917e-07	0.996669
2	1	0	1	0	28.1416	0.410035	0.409863	0.00239647	1	-0.000362019	-0.625148	9.82227e-07	1.03501
2	1	0	0	0	28.8618	0.446044	0.445833	0.0026946	1	-0.00036019	-0.62738	1.20134e-06	1.07321
2	1	0	0	0	29.5818	0.482052	0.481863	0.00300195	1	-0.000358147	-0.63011	1.44653e-06	1.11197
2	1	0	1	0	30.302	0.518061	0.517865	0.00333243	1	-0.000355853	-0.633629	1.72575e-06	1.15149
2	1	0	0	0	31.0222	0.554069	0.553895	0.00378136	1	-0.000353274	-0.636821	2.09448e-06	1.19072
2	1	0	1	0	31.7424	0.590078	0.589893	0.0042402	1	-0.00035038	-0.641273	2.50126e-06	1.23117
2	1	0	0	0	32.4626	0.626086	0.62585	0.00479708	1	-0.000347137	-0.644397	3.00226e-06	1.27025
2	1	0	1	0	33.1828	0.662095	0.661805	0.00530212	1	-0.000343514	-0.648836	3.50897e-06	1.31064
2	1	0	1	0	33.9028	0.698103	0.697839	0.00579541	1	-0.000339504	-0.65325	4.04426e-06	1.35109
2	1	0	0	0	34.623	0.734112	0.733866	0.00641098	1	-0.000335097	-0.657054	4.7048e-06	1.39092
2	1	0	1	0	35.3432	0.77012	0.76986	0.00697666	1	-0.000330275	-0.661889	5.37105e-06	1.43175
2	1	0	0	0	36.0634	0.806128	0.805844	0.00758978	1	-0.000325029	-0.665533	6.11618e-06	1.47138
2	1	0	1	0	36.7836	0.842137	0.84193	0.00821394	1	-0.000319338	-0.670453	6.91556e-06	1.51238
2	1	0	0	0	37.5038	0.878145	0.877994	0.00879792	1	-0.000313198	-0.675519	7.72452e-06	1.55351
2	1	0	1	0	38.224	0.914154	0.914001	0.00953931	1	-0.000306594	-0.679143	8.71894e-06	1.59314
2	1	0	1	0	38.944	0.950162	0.949997	0.010248	1	-0.000299483	-0.684086	9.73552e-06	1.63408
2	1	0	0	0	39.6942	0.987671	0.987473	0.0111353	1	-0.00029148	-0.68894	1.09958e-05	1.67641
2	1	0	1	0	40.4144	1.02368	1.02344	0.0120533	1	-0.00028315	-0.694803	1.23359e-05	1.71825
2	1	0	0	0	41.1346	1.05969	1.05942	0.0130762	1	-0.000274086	-0.701743	1.38532e-05	1.76117
2	1	0	1	0	41.8548	1.0957	1.09549	0.0144797	1	-0.000264157	-0.70823	1.58623e-05	1.80372
2	1	0	0	0	42.575	1.1317	1.13147	0.0159437	1	-0.000253206	-0.717055	1.80398e-05	1.84853
2	1	0	0	0	43.2951	1.16771	1.1675	0.0177007	1	-0.000241109	-0.724579	2.06656e-05	1.89208
2	0	0	0	0	43.9918	1.19742	1.1972	0.0185097	1	-0.000228214	-0.731731	2.21599e-05	1.92893
2	0	0	1	0	44.712	1.16141	1.16125	0.0121126	1	-0.000217472	-0.707182	1.40658e-05	1.86843
2	0	0	1	0	45.4321	1.1254	1.12526	0.00848961	1	-0.000210169	-0.683324	9.55304e-06	1.80859
2	0	0	0	0	46.1522	1.08939	1.08917	0.00609299	1	-0.000204993	-0.664912	6.6363e-06	1.75408
2	0	0	1	0	46.9044	1.05179	1.05157	0.00440638	1	-0.000201101	-0.649039	4.63363e-06	1.70061
2	0	0	0	0	47.6246	1.01578	1.01562	0.00323456	1	-0.000198386	-0.636969	3.28508e-06	1.65259
2	0	0	1	0	48.3448	0.979769	0.979624	0.00235288	1	-0.000196397	-0.627072	2.30494e-06	1.6067
2	0	0	0	0	49.065	0.943761	0.943521	0.00171662	1	-0.000194953	-0.618959	1.61967e-06	1.56248
2	0	0	1	0	49.7852	0.907752	0.907564	0.00117324	1	-0.00019393	-0.612481	1.06479e-06	1.52005
2	0	0	1	0	50.5052	0.871744	0.871601	0.000769623	1	-0.000193236	-0.607053	6.70805e-07	1.47865
2	0	0	0	0	51.2254	0.835735	0.835515	0.000446662	1	-0.000192802	-0.602745	3.73193e-07	1.43826
2	0	0	1	0	51.9456	0.799727	0.799455	0.000172997	1	-0.000192586	-0.600019	1.38303e-07	1.39947
2	0	0	0	0	52.6658	0.763718	0.76346	-2.53849e-05	1	-0.000192551	-0.596768	-1.93804e-08	1.36023
2	0	0	1	0	53.386	0.72771	0.727413	-0.000270452	1	-0.000192674	-0.593877	-1.9673e-07	1.32129
2	0	0	0	0	54.1062	0.691702	0.691484	-0.000470054	1	-0.00019294	-0.59124	-3.25035e-07	1.28272
2	0	0	1	0	54.8264	0.655693	0.655426	-0.000630674	1	-0.000193337	-0.589407	-4.1336e-07	1.24483
2	0	0	1	0	55.5464	0.619685	0.619472	-0.000795158	1	-0.000193858	-0.587207	-4.92579e-07	1.20668
2	0	0	0	0	56.2666	0.583676	0.583461	-0.000925677	1	-0.000194499	-0.58477	-5.40096e-07	1.16823
2	0	0	1	0	56.9868	0.547668	0.547417	-0.00111837	1	-0.000195251	-0.582773	-6.12214e-07	1.13019
2	0	0	0	0	57.707	0.511659	0.511396	-0.00128714	1	-0.000196117	-0.580728	-6.58239e-07	1.09212
2	0	0	1	0	58.4272	0.475651	0.475433	-0.00142987	1	-0.000197101	-0.578611	-6.79807e-07	1.05404
2	0	0	0	0	59.1474	0.439642	0.439395	-0.00159812	1	-0.0001982	-0.576539	-7.02207e-07	1.01593
2	0	0	0	0	59.8674	0.403634	0.403384	-0.00176787	1	-0.000199426	-0.574089	-7.13131e-07	0.977473
2	0	0	1	0	60.5876	0.367625	0.367303	-0.00194437	1	-0.000200771	-0.571726	-7.14173e-07	0.93903
2	0	0	0	0	61.3078	0.331617	0.331326	-0.00214323	1	-0.000202248	-0.569134	-7.10109e-07	0.90046
2	0	0	1	0	62.028	0.295608	0.295284	-0.00232803	1	-0.000203863	-0.566915	-6.8743e-07	0.862199
2	0	0	0	0	62.7482	0.2596	0.259276	-0.00254807	1	-0.00020563	-0.563878	-6.60653e-07	0.823154
2	0	0	1	0	63.4684	0.223592	0.223297	-0.00277923	1	-0.000207552	-0.560258	-6.20593e-07	0.783556
2	0	0	0	0	64.1886	0.187583	0.187316	-0.00300748	1	-0.00020964	-0.557501	-5.63351e-07	0.744817
2	0	0	0	0	64.9086	0.151575	0.151283	-0.00326584	1	-0.000211905	-0.553224	-4.94064e-07	0.704507
2	0	0	1	0	65.6288	0.115566	0.115303	-0.00349644	1	-0.000214348	-0.549938	-4.0315e-07	0.665241
2	0	0	0	0	66.349	0.0795577	0.0792817	-0.00375286	1	-0.00021697	-0.546522	-2.97534e-07	0.625804
2	0	0	1	0	67.0692	0.0435493	0.043249	-0.00401259	1	-0.00021977	-0.543308	-1.73541e-07	0.586557
2	0	0	0	0	67.7894	0.00754081	0.00725329	-0.0042552	1	-0.000222755	-0.538665	-3.08642e-08	0.545919
2	0	0	1	0	68.5096	-0.0284677	-0.0287435	-0.00451781	1	-0.000225923	-0.534914	1.29858e-07	0.50617
2	0	0	1	0	69.2297	-0.0644805	-0.0647978	-0.00473173	1	-0.000229261	-0.531731	3.06606e-07	0.466934
2	0	0	0	0	69.9498	-0.100485	-0.100783	-0.00494045	1	-0.000232752	-0.528853	4.97911e-07	0.42807
2	0	0	1	0	70.67	-0.136493	-0.136823	-0.00512238	1	-0.000236383	-0.525285	7.00858e-07	0.388462
2	0	0	0	0	71.3902	-0.172502	-0.172776	-0.00529658	1	-0.000240148	-0.523062	9.15122e-07	0.350286
2	0	0	1	0	72.1104	-0.20851	-0.208805	-0.00551503	1	-0.00024405	-0.519479	1.15156e-06	0.310674
2	0	0	0	0	72.8306	-0.244519	-0.244772	-0.00580931	1	-0.000248121	-0.516272	1.42195e-06	0.2715
2	0	0	1	0	73.5508	-0.280527	-0.280826	-0.00621363	1	-0.000252445	-0.510502	1.74495e-06	0.229676
2	0	0	1	0	74.2708	-0.316535	-0.316786	-0.00676866	1	-0.000257122	-0.501279	2.14422e-06	0.184492
2	0	0	0	0	74.991	-0.352544	-0.35282	-0.00749653	1	-0.000262266	-0.490138	2.64493e-06	0.137318
2	0	0	1	0	75.7112	-0.388552	-0.388835	-0.00839974	1	-0.00026799	-0.474294	3.26611e-06	0.0854588
2	0	0	0	0	76.4314	-0.424561	-0.424928	-0.00953267	1	-0.000274429	-0.45529	4.0507e-06	0.030362
2	0	0	1	0	77.1836	-0.46217	-0.462528	-0.0109351	1	-0.000282103	-0.432257	5.05777e-06	-0.0302712
2	0	0	0	0	77.9038	-0.498178	-0.498495	-0.0126852	1	-0.000290589	-0.4029	6.3235e-06	-0.0955956
2	0	0	1	0	78.624	-0.534187	-0.534533	-0.0148282	1	-0.000300486	-0.369713	7.92615e-06	-0.164821
2	0	0	1	0	79.344	-0.570195	-0.570509	-0.0173936	1	-0.000312083	-0.329015	9.92318e-06	-0.241493
2	0	0	0	0	80.0642	-0.606204	-0.606494	-0.0204316	1	-0.000325686	-0.285726	1.23916e-05	-0.320768
2	0	0	1	0	80.7844	-0.642212	-0.642506	-0.0238059	1	-0.000341588	-0.239251	1.52954e-05	-0.403254
2	0	0	0	0	81.5046	-0.678221	-0.678529	-0.0275462	1	-0.000360078	-0.18957	1.86909e-05	-0.488959
2	0	0	1	0	82.2248	-0.714229	-0.714489	-0.0317671	1	-0.000381439	-0.143462	2.26973e-05	-0.571027
2	0	0	0	0	82.945	-0.750238	-0.750518	-0.0360168	1	-0.000405878	-0.0927697	2.70313e-05	-0.657748
2	0	0	0	0	83.665	-0.786246	-0.786533	-0.040522	1	-0.000433426	-0.0470247	3.18719e-05	-0.739508
2	0	0	1	0	84.3852	-0.822255	-0.822609	-0.0449438	1	-0.000464191	-0.00285857	3.69712e-05	-0.81975
2	0	0	0	0	85.1054	-0.858263	-0.858615	-0.0489716	1	-0.000498039	0.0418307	4.20478e-05	-0.900446
2	0	0	1	0	85.8256	-0.894271	-0.894588	-0.0530212	1	-0.000534809	0.0769914	4.74321e-05	-0.971579
2	0	0	0	0	86.5458	-0.93028	-0.930583	-0.0564893	1	-0.000574251	0.11447	5.2568e-05	-1.04505
2	0	0	1	0	87.266	-0.966288	-0.966624	-0.0594637	1	-0.000616063	0.146393	5.74791e-05	-1.11302
2	0	0	0	0	87.9862	-1.0023	-1.00265	-0.0623893	1	-0.000659972	0.174161	6.25543e-05	-1.17681
2	0	0	0	0	88.7062	-1.03831	-1.03861	-0.0645384	1	-0.00070571	0.203394	6.70305e-05	-1.24201
2	0	0	1	0	89.4264	-1.07431	-1.0746	-0.0669792	1	-0.000753076	0.225865	7.1976e-05	-1.30047
2	0	0	0	0	90.1466	-1.11032	-1.11058	-0.0685763	1	-0.000801854	0.248256	7.61597e-05	-1.35884
2	0	0	1	0	90.8668	-1.14633	-1.14659	-0.0700317	1	-0.00085189	0.274144	8.02976e-05	-1.42073
2	0	0	0	0	91.587	-1.18234	-1.18261	-0.071711	1	-0.000902942	0.291274	8.48062e-05	-1.47388
2	0	0	1	0	92.3072	-1.21835	-1.21859	-0.0726538	1	-0.000954908	0.31517	8.85351e-05	-1.53376
2	0	0	1	0	93.0273	-1.25436	-1.25469	-0.0736597	1	-0.00100759	0.328916	9.24198e-05	-1.5836
2	0	0	0	0	93.7474	-1.29036	-1.29065	-0.0744312	1	-0.00106088	0.343861	9.60649e-05	-1.63451
2	0	0	1	0	94.4676	-1.32637	-1.32664	-0.0749475	1	-0.00111471	0.362782	9.94282e-05	-1.68942
2	0	0	0	0	95.1878	-1.36238	-1.36268	-0.0759401	1	-0.00116911	0.37325	0.000103482	-1.73593
2	0	0	1	0	95.908	-1.39839	-1.39864	-0.0764689	1	-0.00122399	0.391422	0.000106953	-1.79006
2	0	0	0	0	96.6282	-1.4344	-1.43467	-0.0772372	1	-0.00127937	0.404996	0.00011081	-1.83966
2	0	0	1	0	97.3484	-1.47041	-1.4707	-0.078128	1	-0.00133531	0.417082	0.000114903	-1.88779
2	0	0	1	0	98.0684	-1.50642	-1.50668	-0.0786853	1	-0.00139177	0.43406	0.000118553	-1.94074
2	0	0	0	0	98.7886	-1.54242	-1.54271	-0.0798623	1	-0.00144888	0.443004	0.000123205	-1.98572
2	0	0	1	0	99.5088	-1.57843	-1.57868	-0.0807425	1	-0.00150669	0.45623	0.000127466	-2.03491
2	0	0	0	0	100.229	-1.61444	-1.61473	-0.0816031	1	-0.00156519	0.470267	0.000131767	-2.085
2	0	0	1	0	100.949	-1.65045	-1.65073	-0.0833182	1	-0.00162464	0.48478	0.000137536	-2.13551
2	0	0	0	0	101.669	-1.68646	-1.68668	-0.0846164	1	-0.00168512	0.504731	0.000142721	-2.19141
2	0	0	0	0	102.389	-1.72246	-1.72272	-0.0869643	1	-0.00174687	0.518055	0.000149815	-2.24078
2	0	0	1	0	103.11	-1.75847	-1.75877	-0.0893431	1	-0.00181024	0.537638	0.000157134	-2.29641
2	0	0	0	0	103.83	-1.79448	-1.7947	-0.0917181	1	-0.00187548	0.560636	0.000164607	-2.35534
2	0	0	1	0	104.55	-1.83049	-1.83074	-0.095811	1	-0.00194302	0.574064	0.000175405	-2.40481
2	0	0	0	0	105.27	-1.8665	-1.86673	-0.099147	1	-0.00201317	0.60463	0.000185081	-2.47136
2	0	0	1	0	106.022	-1.90411	-1.90434	-0.104737	1	-0.00208969	0.62673	0.000199454	-2.53107
2	0	0	0	0	106.743	-1.94012	-1.94038	-0.1102	1	-0.00216695	0.661082	0.000213829	-2.60146
2	0	0	0	0	107.463	-1.97613	-1.97631	-0.116519	1	-0.00224855	0.692017	0.000230278	-2.66833
2	1	0	0	1	108.151	-1.98943	-1.98964	-0.117678	1	-0.00233065	0.704703	0.000234136	-2.69434
2	1	0	1	1	108.872	-1.95342	-1.95367	-0.107822	1	-0.00241161	0.698792	0.000210649	-2.65246
2	1	0	0	1	109.592	-1.91741	-1.91769	-0.100548	1	-0.00248656	0.683834	0.00019282	-2.60153
2	1	0	1	1	110.312	-1.8814	-1.88165	-0.0944373	1	-0.00255661	0.664705	0.000177698	-2.54636
2	1	0	0	1	111.032	-1.8454	-1.84564	-0.0888266	1	-0.00262256	0.650768	0.000163942	-2.49641
2	1	0	0	1	111.752	-1.80939	-1.80966	-0.0847419	1	-0.00268502	0.633325	0.000153354	-2.44298
2	1	0	1	1	112.472	-1.77338	-1.77363	-0.0811373	1	-0.0027447	0.620156	0.000143908	-2.39379
2	1	0	0	1	113.193	-1.73737	-1.73765	-0.0780154	1	-0.00280198	0.605297	0.000135563	-2.34295
2	1	0	1	1	113.913	-1.70136	-1.70162	-0.0758155	1	-0.00285736	0.586209	0.00012901	-2.28783
2	1	0	0	1	114.633	-1.66535	-1.66572	-0.0735556	1	-0.00291115	0.568588	0.000122523	-2.23431
2	1	0	1	1	115.353	-1.62934	-1.62961	-0.0720052	1	-0.00296355	0.557592	0.00011734	-2.1872
2	1	0	0	1	116.073	-1.59334	-1.59363	-0.0704798	1	-0.00301478	0.544623	0.000112319	-2.13825
2	1	0	0	1	116.793	-1.55733	-1.55763	-0.0690428	1	-0.003065	0.526529	0.000107543	-2.08416
2	1	0	1	1	117.514	-1.52132	-1.52164	-0.0680658	1	-0.00311435	0.499964	0.000103572	-2.02161
2	1	0	0	1	118.234	-1.48531	-1.48562	-0.0671023	1	-0.00316305	0.482375	9.96887e-05	-1.968
2	1	0	1	1	118.954	-1.4493	-1.44965	-0.0664523	1	-0.00321112	0.445577	9.63325e-05	-1.89522
2	1	0	0	1	119.674	-1.41329	-1.41363	-0.0656985	1	-0.0032587	0.418906	9.28737e-05	-1.83254
2	1	0	1	1	120.394	-1.37729	-1.37765	-0.0647502	1	-0.00330562	0.401166	8.92032e-05	-1.77882
2	1	0	1	1	121.114	-1.34128	-1.34162	-0.0639858	1	-0.00335189	0.382644	8.58448e-05	-1.72427
2	1	0	0	1	121.835	-1.30527	-1.30561	-0.0629835	1	-0.00339764	0.362714	8.22319e-05	-1.66833
2	1	0	1	1	122.555	-1.26926	-1.26964	-0.06164	1	-0.00344254	0.3425	7.82609e-05	-1.61214
2	1	0	0	1	123.275	-1.23325	-1.23361	-0.0605275	1	-0.00348651	0.310217	7.46676e-05	-1.54383
2	1	0	1	1	123.995	-1.19724	-1.19755	-0.059002	1	-0.00352958	0.279485	7.06577e-05	-1.47703
2	1	0	0	1	124.715	-1.16123	-1.16153	-0.0574197	1	-0.00357153	0.257453	6.66946e-05	-1.41898
2	1	0	1	1	125.436	-1.12523	-1.1255	-0.0554999	1	-0.00361215	0.223812	6.24649e-05	-1.34931
2	1	0	1	1	126.156	-1.08922	-1.08953	-0.052808	1	-0.00365115	0.174317	5.75357e-05	-1.26384
2	1	0	0	1	126.876	-1.05321	-1.05353	-0.0500311	1	-0.0036882	0.111928	5.27095e-05	-1.16546
2	1	0	1	1	127.628	-1.0156	-1.01591	-0.0461844	1	-0.0037244	0.0337081	4.69193e-05	-1.04962
2	1	0	0	1	128.312	-0.981392	-0.981711	-0.0425259	2	-0.00375476	-0.0524662	4.17481e-05	-0.929245
2	1	0	1	1	129.032	-0.945383	-0.945696	-0.0381789	2	-0.00378382	-0.152289	3.61056e-05	-0.793407
2	1	0	0	1	129.753	-0.909375	-0.909697	-0.0334972	2	-0.00380963	-0.245711	3.04723e-05	-0.663986
2	1	0	0	1	130.473	-0.873367	-0.873681	-0.0288466	2	-0.00383209	-0.333609	2.52028e-05	-0.540073
2	1	0	1	1	131.193	-0.837358	-0.837679	-0.0241188	2	-0.00385113	-0.418485	2.02038e-05	-0.419194
2	1	0	0	1	131.913	-0.80135	-0.801661	-0.0196654	2	-0.00386687	-0.483192	1.5765e-05	-0.318469
2	1	0	1	1	132.633	-0.765341	-0.765623	-0.0155569	2	-0.00387951	-0.5313	1.19107e-05	-0.234324
2	1	0	0	1	133.353	-0.729333	-0.729613	-0.0119145	2	-0.00388936	-0.562562	8.69299e-06	-0.167051
2	1	0	1	1	134.074	-0.693324	-0.693629	-0.00890764	2	-0.00389681	-0.585033	6.17859e-06	-0.108596
2	1	0	0	1	134.794	-0.657316	-0.657648	-0.00656798	2	-0.00390234	-0.600292	4.31942e-06	-0.0573561
2	1	0	0	1	135.514	-0.621307	-0.62164	-0.00478013	2	-0.00390638	-0.609476	2.97152e-06	-0.012164
2	1	0	1	1	136.266	-0.583698	-0.583943	-0.00337608	2	-0.0039094	-0.617098	1.97144e-06	0.0331552
2	1	0	0	1	136.986	-0.54769	-0.547964	-0.00249112	2	-0.00391147	-0.62224	1.36504e-06	0.0742759
2	1	0	1	1	137.706	-0.511681	-0.511954	-0.00203074	2	-0.00391306	-0.624076	1.03964e-06	0.112122
2	1	0	0	1	138.427	-0.475673	-0.475976	-0.00186386	2	-0.00391445	-0.624727	8.87153e-07	0.148751
2	1	0	1	1	139.147	-0.439664	-0.44002	-0.00168873	2	-0.00391574	-0.624598	7.43076e-07	0.184578
2	1	0	0	1	139.867	-0.403656	-0.403929	-0.00130646	2	-0.00391684	-0.626643	5.27718e-07	0.222714
2	1	0	0	1	140.587	-0.367648	-0.367925	-0.00059299	2	-0.00391753	-0.629636	2.18176e-07	0.26171
2	1	0	1	1	141.307	-0.331639	-0.331917	0.000302918	2	-0.00391763	-0.633689	-1.00544e-07	0.301772
2	1	0	0	1	142.027	-0.295631	-0.29588	0.00109592	2	-0.00391711	-0.638156	-3.24261e-07	0.342276
2	1	0	1	1	142.748	-0.259622	-0.259899	0.00173343	2	-0.00391607	-0.641517	-4.50518e-07	0.381617
2	1	0	0	1	143.468	-0.223614	-0.223877	0.0021782	2	-0.00391464	-0.644335	-4.87649e-07	0.420458
2	1	0	1	1	144.188	-0.187605	-0.187871	0.00243779	2	-0.00391295	-0.646368	-4.5799e-07	0.458497
2	1	0	1	1	144.908	-0.151597	-0.15191	0.00267576	2	-0.0039111	-0.647404	-4.06475e-07	0.495494
2	1	0	0	1	145.628	-0.115588	-0.115903	0.00277563	2	-0.00390914	-0.64776	-3.21703e-07	0.531857
2	1	0	1	1	146.348	-0.0795797	-0.0798996	0.00284577	2	-0.0039071	-0.648113	-2.27376e-07	0.568213
2	1	0	0	1	147.069	-0.0435712	-0.0439304	0.00293734	2	-0.003905	-0.647775	-1.29038e-07	0.603845
2	1	0	1	1	147.789	-0.00756274	-0.00784776	0.00295322	2	-0.00390287	-0.648182	-2.31762e-08	0.640335
2	1	0	0	1	148.509	0.0284457	0.0282221	0.00302151	2	-0.00390071	-0.647683	8.52735e-08	0.675905
2	1	0	1	1	149.229	0.0644542	0.0642104	0.00299179	2	-0.00389855	-0.647628	1.92104e-07	0.711839
2	1	0	1	1	149.949	0.100463	0.100198	0.00299852	2	-0.00389638	-0.647619	3.00445e-07	0.747817
2	1	0	0	1	150.669	0.136471	0.136237	0.00306546	2	-0.00389419	-0.647406	4.17628e-07	0.783643
2	1	0	1	1	151.39	0.17248	0.172187	0.00313474	2	-0.00389195	-0.647725	5.39761e-07	0.819912
2	1	0	0	1	152.11	0.208488	0.208196	0.00331228	2	-0.00388964	-0.647778	6.89604e-07	0.855974
2	1	0	1	1	152.83	0.244496	0.244229	0.00342664	2	-0.00388721	-0.648714	8.36886e-07	0.892943
2	1	0	0	1	153.55	0.280505	0.28018	0.00359232	2	-0.00388468	-0.65003	1.0065e-06	0.930211
2	1	0	0	1	154.27	0.316513	0.316209	0.00382172	2	-0.003882	-0.650087	1.20846e-06	0.966296
2	1	0	1	1	154.99	0.352522	0.352166	0.00401071	2	-0.00387917	-0.65176	1.41243e-06	1.00393
2	1	0	0	1	155.711	0.38853	0.388266	0.00418429	2	-0.00387621	-0.652265	1.62462e-06	1.04053
2	1	0	1	1	156.431	0.424539	0.424317	0.00434583	2	-0.00387312	-0.653051	1.84401e-06	1.07737
2	1	0	0	1	157.151	0.460547	0.460355	0.00446088	2	-0.00386994	-0.653792	2.05359e-06	1.11415
2	1	0	1	1	157.871	0.496556	0.496346	0.00464068	2	-0.00386666	-0.653817	2.30338e-06	1.15016
2	1	0	0	1	158.591	0.532564	0.532353	0.00475366	2	-0.00386327	-0.655207	2.53063e-06	1.18756
2	1	0	0	1	159.311	0.568573	0.56835	0.00491936	2	-0.00385977	-0.656338	2.79592e-06	1.22469
2	1	0	1	1	160.032	0.604581	0.604379	0.00517996	2	-0.00385612	-0.657125	3.13066e-06	1.2615
2	1	0	0	1	160.752	0.64059	0.640404	0.005417	2	-0.0038523	-0.658724	3.46907e-06	1.29913
2	1	0	1	1	161.472	0.676598	0.676343	0.00576013	2	-0.00384828	-0.65971	3.89582e-06	1.33605
2	1	0	0	1	162.192	0.712606	0.712349	0.00603957	2	-0.00384404	-0.661375	4.30228e-06	1.37372
2	1	0	1	1	162.912	0.748615	0.748336	0.00639633	2	-0.00383954	-0.663951	4.7866e-06	1.41229
2	1	0	1	1	163.632	0.784628	0.784437	0.00688733	2	-0.00383474	-0.666306	5.40268e-06	1.45074
2	1	0	0	1	164.353	0.820632	0.82042	0.00734555	2	-0.00382962	-0.669323	6.02643e-06	1.48974
2	1	0	1	1	165.073	0.85664	0.856469	0.00792573	2	-0.00382413	-0.67166	6.78814e-06	1.52813
2	1	0	0	1	165.793	0.892649	0.89245	0.00851052	2	-0.00381821	-0.674914	7.59521e-06	1.56736
2	1	0	1	1	166.513	0.928657	0.928499	0.00918764	2	-0.00381182	-0.679504	8.53072e-06	1.608
2	1	0	0	1	167.233	0.964666	0.964474	0.0100141	2	-0.00380491	-0.682563	9.65838e-06	1.64704
2	1	0	1	1	167.986	1.00227	1.0021	0.0108468	2	-0.00379706	-0.687935	1.08696e-05	1.69004
2	1	0	1	1	168.706	1.03828	1.03808	0.0118524	2	-0.00378889	-0.691669	1.23038e-05	1.72975
2	1	0	0	1	169.426	1.07429	1.07412	0.012864	2	-0.00378	-0.696964	1.38174e-05	1.77109
2	1	0	1	1	170.146	1.1103	1.11011	0.0139822	2	-0.00377032	-0.703051	1.55217e-05	1.81316
2	1	0	0	1	170.866	1.14631	1.14609	0.0154001	2	-0.00375971	-0.708202	1.76499e-05	1.85429
2	1	0	1	1	171.586	1.18232	1.18209	0.0168784	2	-0.00374809	-0.716047	1.99518e-05	1.89814
2	0	0	0	1	172.271	1.18342	1.18324	0.0139567	2	-0.00373681	-0.708659	1.65142e-05	1.8919
2	0	0	1	1	172.991	1.14741	1.14721	0.00948118	2	-0.00372853	-0.68477	1.08769e-05	1.83198
2	0	0	0	1	173.711	1.1114	1.11125	0.00680383	2	-0.00372275	-0.66813	7.56076e-06	1.77938
2	0	0	1	1	174.432	1.07539	1.07519	0.00508452	2	-0.00371852	-0.654459	5.46684e-06	1.72965
2	0	0	0	1	175.184	1.03778	1.03755	0.00376851	2	-0.00371523	-0.643604	3.91002e-06	1.68115
2	0	0	0	1	175.904	1.00177	1.00156	0.00287683	2	-0.00371287	-0.635208	2.88133e-06	1.63677
2	0	0	1	1	176.624	0.965766	0.965627	0.00220217	2	-0.00371106	-0.629112	2.12647e-06	1.59474
2	0	0	0	1	177.344	0.929758	0.929563	0.00165028	2	-0.00370969	-0.62372	1.53404e-06	1.55328
2	0	0	1	1	178.064	0.893749	0.89354	0.00123799	2	-0.00370866	-0.619448	1.1062e-06	1.51299
2	0	0	0	1	178.785	0.857741	0.857575	0.000877585	2	-0.00370791	-0.61603	7.52595e-07	1.4736
2	0	0	1	1	179.505	0.821732	0.821545	0.000576038	2	-0.0037074	-0.61201	4.73241e-07	1.43355
2	0	0	1	1	180.225	0.785724	0.785456	0.000335092	2	-0.00370708	-0.609634	2.632e-07	1.39509
2	0	0	0	1	180.945	0.749715	0.74948	0.000101261	2	-0.00370693	-0.607042	7.58933e-08	1.35652
2	0	0	1	1	181.665	0.713707	0.713457	-6.5062e-05	2	-0.00370693	-0.604224	-4.64189e-08	1.31768
2	0	0	0	1	182.385	0.677698	0.677426	-0.000264771	2	-0.00370706	-0.602808	-1.79363e-07	1.28023
2	0	0	1	1	183.106	0.64169	0.641455	-0.000443761	2	-0.00370732	-0.600722	-2.84653e-07	1.24218
2	0	0	0	1	183.826	0.605681	0.605457	-0.000564276	2	-0.00370769	-0.599023	-3.41645e-07	1.20448
2	0	0	1	1	184.546	0.569673	0.569438	-0.000722942	2	-0.00370816	-0.597498	-4.1167e-07	1.16694
2	0	0	1	1	185.266	0.533664	0.533389	-0.000835359	2	-0.00370874	-0.595968	-4.45572e-07	1.12936
2	0	0	0	1	185.986	0.497656	0.49742	-0.000996196	2	-0.00370941	-0.594492	-4.95528e-07	1.09191
2	0	0	1	1	186.706	0.461647	0.461421	-0.00114837	2	-0.00371019	-0.592969	-5.29882e-07	1.05439
2	0	0	0	1	187.427	0.425639	0.425432	-0.00124959	2	-0.00371106	-0.59078	-5.31615e-07	1.01621
2	0	0	1	1	188.147	0.389631	0.389297	-0.00140998	2	-0.00371203	-0.588576	-5.48903e-07	0.977874
2	0	0	0	1	188.867	0.353622	0.353338	-0.00156686	2	-0.0037131	-0.586774	-5.53631e-07	0.940112
2	0	0	0	1	189.587	0.317614	0.3173	-0.00171097	2	-0.00371429	-0.585052	-5.4289e-07	0.902352
2	0	0	1	1	190.307	0.281605	0.281317	-0.00188115	2	-0.00371558	-0.583164	-5.29199e-07	0.864481
2	0	0	0	1	191.027	0.245597	0.245329	-0.0020317	2	-0.003717	-0.580936	-4.98433e-07	0.826264
2	0	0	1	1	191.748	0.209588	0.209276	-0.00223716	2	-0.00371855	-0.578492	-4.68184e-07	0.787767
2	0	0	0	1	192.468	0.17358	0.173341	-0.00245177	2	-0.00372024	-0.576419	-4.24994e-07	0.74976
2	0	0	1	1	193.188	0.137571	0.137317	-0.0026506	2	-0.00372208	-0.573687	-3.63973e-07	0.711004
2	0	0	0	1	193.908	0.101563	0.101281	-0.00287783	2	-0.00372408	-0.57078	-2.9147e-07	0.672061
2	0	0	0	1	194.628	0.0655544	0.0653184	-0.00307396	2	-0.00372624	-0.567163	-2.00787e-07	0.632482
2	0	0	1	1	195.348	0.029546	0.0292846	-0.00331238	2	-0.00372855	-0.56508	-9.70017e-08	0.594364
2	0	0	0	1	196.069	-0.00646248	-0.00680547	-0.00355619	2	-0.00373103	-0.561455	2.42016e-08	0.554649
2	0	0	1	1	196.789	-0.042471	-0.0428563	-0.00373444	2	-0.00373366	-0.558614	1.60044e-07	0.515758
2	0	0	0	1	197.509	-0.0784794	-0.0788138	-0.00394447	2	-0.00373643	-0.555599	3.10879e-07	0.476786
2	0	0	1	1	198.229	-0.114488	-0.114807	-0.00410056	2	-0.00373934	-0.552702	4.70774e-07	0.437894
2	0	0	0	1	198.949	-0.150496	-0.150796	-0.00424792	2	-0.00374236	-0.551289	6.40568e-07	0.400493
2	0	0	0	1	199.669	-0.186505	-0.186795	-0.00439078	2	-0.00374548	-0.549282	8.20175e-07	0.362488
2	0	0	1	1	200.39	-0.222513	-0.222782	-0.00455043	2	-0.0037487	-0.547279	1.01375e-06	0.324497
2	0	0	0	1	201.11	-0.258522	-0.25881	-0.00483818	2	-0.00375208	-0.544457	1.25217e-06	0.285647
2	0	0	1	1	201.83	-0.29453	-0.294814	-0.00527857	2	-0.00375571	-0.537798	1.5562e-06	0.242984
2	0	0	0	1	202.55	-0.330539	-0.330807	-0.0058918	2	-0.00375973	-0.529984	1.94905e-06	0.199177
2	0	0	1	1	203.27	-0.366547	-0.366802	-0.00673569	2	-0.00376428	-0.516747	2.47066e-06	0.149945
2	0	0	1	1	203.99	-0.402556	-0.402862	-0.00771794	2	-0.00376949	-0.500684	3.10926e-06	0.0978222
2	0	0	0	1	204.711	-0.438564	-0.438883	-0.00893071	2	-0.00377548	-0.479426	3.91954e-06	0.0405429
2	0	0	1	1	205.463	-0.476173	-0.476525	-0.0104768	2	-0.00378275	-0.449673	4.99246e-06	-0.0268525
2	0	0	0	1	206.183	-0.512182	-0.512533	-0.0123924	2	-0.00379097	-0.412437	6.35151e-06	-0.100095
2	0	0	1	1	206.903	-0.54819	-0.548513	-0.0147556	2	-0.00380074	-0.36108	8.09362e-06	-0.187432
2	0	0	0	1	207.623	-0.584198	-0.58453	-0.0176352	2	-0.00381239	-0.2977	1.03083e-05	-0.28683
2	0	0	1	1	208.344	-0.620207	-0.620537	-0.0209532	2	-0.00382627	-0.223589	1.30022e-05	-0.396948
2	0	0	1	1	209.064	-0.656215	-0.656535	-0.0247656	2	-0.0038427	-0.145084	1.62595e-05	-0.51145
2	0	0	0	1	209.784	-0.692224	-0.692547	-0.0288943	2	-0.00386201	-0.0615537	2.00107e-05	-0.630994
2	0	0	1	1	210.504	-0.728232	-0.728548	-0.0332439	2	-0.0038844	0.0217824	2.42198e-05	-0.750331
2	0	0	0	1	211.224	-0.764241	-0.764524	-0.0379041	2	-0.00391005	0.0961248	2.89786e-05	-0.860649
2	0	0	1	1	211.944	-0.800249	-0.800532	-0.0423726	2	-0.00393896	0.16675	3.39206e-05	-0.967282
2	0	0	0	1	212.665	-0.836258	-0.836576	-0.0467263	2	-0.00397107	0.229697	3.90901e-05	-1.06627
2	0	0	0	1	213.385	-0.872267	-0.872612	-0.0508503	2	-0.00400624	0.281988	4.43726e-05	-1.1546
2	0	0	1	1	214.105	-0.908275	-0.90859	-0.0544583	2	-0.00404421	0.33082	4.94803e-05	-1.23941
2	0	0	0	1	214.825	-0.944283	-0.944585	-0.0577876	2	-0.00408466	0.367624	5.45853e-05	-1.31221
2	0	0	1	1	215.545	-0.980292	-0.980602	-0.0605261	2	-0.00412728	0.405462	5.9352e-05	-1.38606
2	0	0	0	1	216.265	-1.0163	-1.01657	-0.0628215	2	-0.00417172	0.435892	6.38627e-05	-1.45247
2	0	0	1	1	216.986	-1.05231	-1.05259	-0.0649579	2	-0.00421778	0.458005	6.83739e-05	-1.51059
2	0	0	0	1	217.706	-1.08832	-1.08855	-0.0664289	2	-0.00426516	0.480679	7.2311e-05	-1.56923
2	0	0	0	1	218.426	-1.12433	-1.12458	-0.0681865	2	-0.00431361	0.496118	7.66811e-05	-1.6207
2	0	0	1	1	219.146	-1.16033	-1.16056	-0.0692061	2	-0.00436301	0.512482	8.03182e-05	-1.67305
2	0	0	0	1	219.866	-1.19634	-1.19658	-0.0702021	2	-0.00441323	0.530898	8.40023e-05	-1.72748
2	0	0	1	1	220.586	-1.23235	-1.23266	-0.0711432	2	-0.00446415	0.539377	8.76955e-05	-1.77204
2	0	0	0	1	221.307	-1.26836	-1.26867	-0.0718777	2	-0.00451567	0.553625	9.11891e-05	-1.82229
2	0	0	1	1	222.027	-1.30437	-1.3047	-0.0724583	2	-0.00456766	0.561762	9.45367e-05	-1.86647
2	0	0	0	1	222.747	-1.34038	-1.34066	-0.0731436	2	-0.00462009	0.569764	9.80603e-05	-1.91042
2	0	0	0	1	223.467	-1.37638	-1.3767	-0.0736566	2	-0.00467296	0.584905	0.000101403	-1.9616
2	0	0	1	1	224.187	-1.41239	-1.41267	-0.0743472	2	-0.00472627	0.592057	0.000105028	-2.00473
2	0	0	0	1	224.907	-1.4484	-1.44868	-0.0748675	2	-0.00478001	0.600906	0.000108459	-2.04959
2	0	0	1	1	225.628	-1.48441	-1.4847	-0.0754443	2	-0.00483414	0.609163	0.000112012	-2.09386
2	0	0	0	1	226.348	-1.52042	-1.52068	-0.0763477	2	-0.00488885	0.614981	0.000116101	-2.13566
2	0	0	1	1	227.068	-1.55643	-1.55668	-0.0770143	2	-0.00494409	0.631929	0.000119887	-2.18861
2	0	0	1	1	227.788	-1.59244	-1.59265	-0.0783713	2	-0.00500003	0.632419	0.000124818	-2.22507
2	0	0	0	1	228.508	-1.62844	-1.62869	-0.0792404	2	-0.0050568	0.637854	0.000129058	-2.26654
2	0	0	1	1	229.228	-1.66445	-1.6647	-0.0804806	2	-0.00511438	0.653031	0.000133976	-2.31774
2	0	0	0	1	229.949	-1.70046	-1.70077	-0.0823867	2	-0.00517303	0.656388	0.000140121	-2.35716
2	0	0	1	1	230.669	-1.73647	-1.73673	-0.0841639	2	-0.005233	0.672464	0.00014617	-2.40919
2	0	0	0	1	231.389	-1.77248	-1.77274	-0.0868087	2	-0.0052945	0.68432	0.00015389	-2.45706
2	0	0	1	1	232.109	-1.80849	-1.80871	-0.0897	2	-0.00535797	0.697831	0.000162242	-2.50654
2	0	0	1	1	232.829	-1.8445	-1.84471	-0.0930624	2	-0.00542377	0.723015	0.000171673	-2.56773
2	0	0	0	1	233.549	-1.8805	-1.88074	-0.0982165	2	-0.0054927	0.741687	0.000184719	-2.62242
2	0	0	1	1	234.27	-1.91651	-1.91667	-0.103241	2	-0.00556517	0.772183	0.000197879	-2.68885
2	0	0	0	1	235.02	-1.95402	-1.95421	-0.11024	2	-0.00564509	0.797705	0.000215433	-2.75191
2	0	0	1	1	235.74	-1.99003	-1.99024	-0.117236	2	-0.0057269	0.829824	0.000233327	-2.82006
2	1	0	1	0	236.431	-1.97543	-1.97559	-0.110836	2	-0.00580688	0.82389	0.000218967	-2.79948
2	1	0	1	0	237.151	-1.93942	-1.93965	-0.102867	2	-0.00588373	0.79845	0.000199526	-2.7381
2	1	0	0	0	237.871	-1.90341	-1.90365	-0.0957982	2	-0.00595507	0.779995	0.000182366	-2.68365
2	1	0	1	0	238.591	-1.8674	-1.8676	-0.0898302	2	-0.00602192	0.755213	0.000167767	-2.62282
2	1	0	0	0	239.311	-1.83139	-1.83166	-0.0855	2	-0.006085	0.724089	0.000156607	-2.55575
2	1	0	1	0	240.032	-1.79538	-1.79564	-0.0812855	2	-0.00614501	0.701595	0.00014596	-2.49724
2	1	0	0	0	240.752	-1.75938	-1.75967	-0.0784101	2	-0.0062025	0.667612	0.000137976	-2.42729
2	1	0	0	0	241.472	-1.72337	-1.72365	-0.0754728	2	-0.00625777	0.633344	0.000130089	-2.357
2	1	0	1	0	242.192	-1.68736	-1.68762	-0.0730918	2	-0.00631126	0.607667	0.000123351	-2.29529
2	1	0	0	0	242.912	-1.65135	-1.65166	-0.0715709	2	-0.00636331	0.575659	0.000118211	-2.22732
2	1	0	1	0	243.632	-1.61534	-1.61563	-0.0697562	2	-0.00641424	0.545781	0.0001127	-2.16141
2	1	0	0	0	244.353	-1.57933	-1.5796	-0.0686795	2	-0.00646407	0.529069	0.000108486	-2.10867
2	1	0	1	0	245.073	-1.54332	-1.54362	-0.0677771	2	-0.0065131	0.506695	0.000104622	-2.05031
2	1	0	0	0	245.793	-1.50732	-1.50759	-0.0665604	2	-0.00656147	0.478334	0.000100346	-1.98592
2	1	0	0	0	246.513	-1.47131	-1.47161	-0.0659797	2	-0.00660922	0.445313	9.70963e-05	-1.91692
2	1	0	1	0	247.233	-1.4353	-1.43561	-0.0651573	2	-0.00665641	0.428379	9.35403e-05	-1.86399
2	1	0	0	0	247.953	-1.39929	-1.39959	-0.064691	2	-0.00670317	0.425402	9.05408e-05	-1.82499
2	1	0	1	0	248.674	-1.36328	-1.36358	-0.0638746	2	-0.00674938	0.400464	8.70983e-05	-1.76405
2	1	0	0	0	249.394	-1.32727	-1.3276	-0.0628036	2	-0.00679502	0.361666	8.33782e-05	-1.68927
2	1	0	1	0	250.114	-1.29127	-1.2916	-0.0618485	2	-0.00683991	0.337041	7.98835e-05	-1.62864
2	1	0	1	0	250.834	-1.25526	-1.25557	-0.0608583	2	-0.00688408	0.315691	7.64119e-05	-1.57126
2	1	0	0	0	251.554	-1.21925	-1.21949	-0.059637	2	-0.00692742	0.298995	7.27266e-05	-1.51848
2	1	0	1	0	252.274	-1.18324	-1.18354	-0.0582721	2	-0.00696994	0.260244	6.89672e-05	-1.44378
2	1	0	0	0	252.995	-1.14723	-1.14751	-0.0564337	2	-0.00701126	0.211785	6.47585e-05	-1.3593
2	1	0	1	0	253.715	-1.11122	-1.11152	-0.0544107	2	-0.00705118	0.172896	6.04785e-05	-1.28441
2	1	0	0	0	254.435	-1.07521	-1.07548	-0.0518537	2	-0.00708942	0.118836	5.57679e-05	-1.19432
2	1	0	1	0	255.155	-1.03921	-1.03953	-0.0487202	2	-0.00712568	0.0490242	5.06463e-05	-1.08856
2	1	0	1	0	255.905	-1.0017	-1.00201	-0.0449255	2	-0.00716082	-0.0361404	4.50157e-05	-0.965867
2	1	0	0	0	256.591	-0.967389	-0.967688	-0.0409949	3	-0.00719031	-0.12227	3.96703e-05	-0.845418
2	1	0	1	0	257.312	-0.93138	-0.931693	-0.0365465	3	-0.00721826	-0.210487	3.40501e-05	-0.721206
2	1	0	0	0	258.032	-0.895372	-0.895703	-0.0318469	3	-0.00724287	-0.295172	2.85254e-05	-0.600531
2	1	0	1	0	258.752	-0.859363	-0.859675	-0.0270862	3	-0.00726408	-0.379136	2.32853e-05	-0.480539
2	1	0	0	0	259.472	-0.823355	-0.823692	-0.0224908	3	-0.00728191	-0.454444	1.85255e-05	-0.369248
2	1	0	0	0	260.192	-0.787347	-0.787625	-0.0180613	3	-0.00729647	-0.512127	1.42255e-05	-0.275499
2	1	0	1	0	260.912	-0.751338	-0.751641	-0.0141176	3	-0.00730802	-0.549645	1.06114e-05	-0.201996
2	1	0	0	0	261.633	-0.715329	-0.715618	-0.0106902	3	-0.0073169	-0.576495	7.65013e-06	-0.139123
2	1	0	1	0	262.353	-0.679321	-0.679616	-0.00792925	3	-0.00732355	-0.595857	5.38884e-06	-0.0837586
2	1	0	0	0	263.073	-0.643312	-0.643654	-0.00577967	3	-0.00732845	-0.608813	3.72011e-06	-0.0348407
2	1	0	1	0	263.825	-0.605704	-0.605984	-0.00412572	3	-0.00733213	-0.619256	2.50012e-06	0.0132718
2	1	0	0	0	264.545	-0.569695	-0.56999	-0.00296033	3	-0.00733465	-0.625559	1.68736e-06	0.0555691
2	1	0	0	0	265.265	-0.533687	-0.533953	-0.00232366	3	-0.00733653	-0.63007	1.24072e-06	0.0961165
2	1	0	1	0	265.986	-0.497678	-0.497981	-0.00205252	3	-0.00733807	-0.632261	1.02212e-06	0.13428
2	1	0	0	0	266.706	-0.46167	-0.461987	-0.00195185	3	-0.0073395	-0.631978	9.01732e-07	0.16999
2	1	0	1	0	267.426	-0.425661	-0.425929	-0.00173547	3	-0.00734084	-0.633595	7.39187e-07	0.207666
2	1	0	0	0	268.146	-0.389653	-0.389895	-0.00114887	3	-0.00734189	-0.636201	4.47937e-07	0.246306
2	1	0	1	0	268.866	-0.353644	-0.353886	-0.000307126	3	-0.00734242	-0.640331	1.08687e-07	0.286445
2	1	0	0	0	269.587	-0.317636	-0.317866	0.00056634	3	-0.00734231	-0.645072	-1.8002e-07	0.327206
2	1	0	0	0	270.307	-0.281627	-0.281867	0.00134996	3	-0.0073416	-0.648385	-3.80509e-07	0.366519
2	1	0	1	0	271.027	-0.245619	-0.24587	0.0018656	3	-0.00734042	-0.651814	-4.58696e-07	0.405944
2	1	0	0	0	271.747	-0.20961	-0.209851	0.00224572	3	-0.00733892	-0.653316	-4.71268e-07	0.443465
2	1	0	1	0	272.467	-0.173602	-0.173887	0.00247829	3	-0.00733721	-0.654688	-4.30943e-07	0.480801
2	1	0	0	0	273.187	-0.137593	-0.137909	0.00262295	3	-0.00733535	-0.656125	-3.61727e-07	0.518216
2	1	0	1	0	273.908	-0.101585	-0.101892	0.00278227	3	-0.0073334	-0.656455	-2.8349e-07	0.554563
2	1	0	1	0	274.628	-0.0655764	-0.0659299	0.00282371	3	-0.00733138	-0.657545	-1.86167e-07	0.591615
2	1	0	0	0	275.348	-0.0295679	-0.0298685	0.00286303	3	-0.00732932	-0.657824	-8.55143e-08	0.627956
2	1	0	1	0	276.068	0.00644055	0.00615798	0.00292002	3	-0.00732722	-0.657743	1.79814e-08	0.663901
2	1	0	0	0	276.788	0.042449	0.0421696	0.0029305	3	-0.0073251	-0.658458	1.23578e-07	0.700627
2	1	0	1	0	277.508	0.0784575	0.078214	0.0030021	3	-0.00732297	-0.657916	2.34806e-07	0.73613
2	1	0	0	0	278.229	0.114466	0.114209	0.00299537	3	-0.00732081	-0.658394	3.42097e-07	0.772602
2	1	0	1	0	278.949	0.150474	0.150211	0.00307078	3	-0.00731862	-0.658985	4.61264e-07	0.809196
2	1	0	1	0	279.669	0.186483	0.18619	0.00322229	3	-0.00731635	-0.658877	5.9996e-07	0.845068
2	1	0	0	0	280.389	0.222491	0.222202	0.00337207	3	-0.00731397	-0.660214	7.49281e-07	0.882416
2	1	0	1	0	281.109	0.2585	0.258213	0.0035771	3	-0.00731146	-0.66053	9.23653e-07	0.918743
2	1	0	0	0	281.829	0.294508	0.294211	0.00374323	3	-0.00730883	-0.66156	1.1013e-06	0.955772
2	1	0	1	0	282.55	0.330517	0.330224	0.0039158	3	-0.00730606	-0.66298	1.29309e-06	0.993204
2	1	0	0	0	283.27	0.366525	0.366209	0.00412162	3	-0.00730315	-0.662999	1.50938e-06	1.02921
2	1	0	0	0	283.99	0.402534	0.402306	0.00426118	3	-0.00730013	-0.664232	1.7143e-06	1.06654
2	1	0	1	0	284.71	0.438542	0.438315	0.00440505	3	-0.00729699	-0.664565	1.9308e-06	1.10288
2	1	0	0	0	285.43	0.474551	0.474307	0.00453919	3	-0.00729376	-0.66516	2.15297e-06	1.13947
2	1	0	1	0	286.15	0.510559	0.510356	0.00466037	3	-0.00729044	-0.666505	2.37845e-06	1.17686
2	1	0	0	0	286.871	0.546567	0.546355	0.00484971	3	-0.00728701	-0.666438	2.64966e-06	1.21279
2	1	0	1	0	287.591	0.582576	0.582335	0.00498959	3	-0.00728347	-0.6672	2.90561e-06	1.24953
2	1	0	0	0	288.311	0.618584	0.618375	0.00518801	3	-0.00727979	-0.668612	3.20813e-06	1.28699
2	1	0	0	0	289.031	0.654593	0.654379	0.00545525	3	-0.00727594	-0.669047	3.5698e-06	1.32343
2	1	0	1	0	289.751	0.690601	0.690311	0.00570554	3	-0.00727192	-0.670578	3.9386e-06	1.36089
2	1	0	0	0	290.471	0.72661	0.726419	0.00606953	3	-0.00726768	-0.671365	4.40902e-06	1.39778
2	1	0	1	0	291.192	0.762618	0.762393	0.00637312	3	-0.00726321	-0.672939	4.85882e-06	1.43533
2	1	0	0	0	291.912	0.798627	0.798387	0.00677071	3	-0.00725846	-0.675621	5.40565e-06	1.47401
2	1	0	1	0	292.632	0.834635	0.834438	0.0072582	3	-0.0072534	-0.676688	6.05652e-06	1.51113
2	1	0	0	0	293.352	0.870644	0.870475	0.0077646	3	-0.007248	-0.679587	6.75889e-06	1.55006
2	1	0	0	0	294.072	0.906652	0.906439	0.00836548	3	-0.0072422	-0.681819	7.5828e-06	1.58826
2	1	0	1	0	294.792	0.942661	0.942475	0.00903586	3	-0.00723592	-0.685031	8.51607e-06	1.62751
2	1	0	0	0	295.513	0.978669	0.978492	0.00977561	3	-0.00722914	-0.689136	9.56536e-06	1.66763
2	1	0	1	0	296.265	1.01628	1.01607	0.0106809	3	-0.00722145	-0.691988	1.08526e-05	1.70806
2	1	0	0	0	296.985	1.05229	1.05207	0.0115894	3	-0.00721343	-0.697053	1.21929e-05	1.74912
2	1	0	1	0	297.705	1.08829	1.0881	0.0127065	3	-0.00720469	-0.700522	1.3826e-05	1.78862
2	1	0	1	0	298.425	1.1243	1.12411	0.0138369	3	-0.00719513	-0.70531	1.55542e-05	1.82942
2	1	0	0	0	299.145	1.16031	1.16018	0.0151527	3	-0.00718467	-0.711509	1.75799e-05	1.87169
2	1	0	1	0	299.866	1.19632	1.19618	0.0167301	3	-0.00717319	-0.716129	2.00122e-05	1.91231
2	0	0	0	0	300.55	1.16941	1.1692	0.011356	3	-0.00716359	-0.699181	1.32774e-05	1.86838
2	0	0	1	0	301.27	1.13341	1.13324	0.00787928	3	-0.00715678	-0.681921	8.92908e-06	1.81516
2	0	0	0	0	301.991	1.0974	1.0972	0.00578663	3	-0.00715191	-0.668441	6.34909e-06	1.76564
2	0	0	1	0	302.743	1.05979	1.05958	0.00426443	3	-0.00714817	-0.658598	4.51851e-06	1.71818
2	0	0	0	0	303.463	1.02378	1.02358	0.00326879	3	-0.00714549	-0.650779	3.34586e-06	1.67435
2	0	0	1	0	304.183	0.987771	0.987582	0.00249014	3	-0.00714344	-0.644782	2.45922e-06	1.63236
2	0	0	0	0	304.903	0.951763	0.951595	0.00191049	3	-0.00714188	-0.639625	1.81802e-06	1.59122
2	0	0	0	0	305.623	0.915754	0.915581	0.00144535	3	-0.00714068	-0.635783	1.32334e-06	1.55136
2	0	0	1	0	306.344	0.879746	0.87957	0.00105903	3	-0.00713979	-0.632603	9.31489e-07	1.51217
2	0	0	0	0	307.064	0.843737	0.843539	0.000772525	3	-0.00713914	-0.629622	6.51654e-07	1.47316
2	0	0	1	0	307.784	0.807729	0.807465	0.000479245	3	-0.00713871	-0.627761	3.86973e-07	1.43523
2	0	0	0	0	308.504	0.77172	0.771439	0.000244721	3	-0.00713845	-0.625368	1.88787e-07	1.39681
2	0	0	1	0	309.224	0.735712	0.735468	5.5101e-05	3	-0.00713835	-0.623837	4.0525e-08	1.3593
2	0	0	1	0	309.944	0.699708	0.699483	-0.000128335	3	-0.00713838	-0.622251	-8.9768e-08	1.32173
2	0	0	0	0	310.665	0.663695	0.663384	-0.000268959	3	-0.00713855	-0.620891	-1.78423e-07	1.28427
2	0	0	1	0	311.385	0.627687	0.627435	-0.00045657	3	-0.00713882	-0.618913	-2.86468e-07	1.24635
2	0	0	0	0	312.105	0.591678	0.591405	-0.000605337	3	-0.00713921	-0.617176	-3.57999e-07	1.20858
2	0	0	1	0	312.825	0.55567	0.555455	-0.000719937	3	-0.00713969	-0.615782	-3.99892e-07	1.17124
2	0	0	0	0	313.545	0.519661	0.519446	-0.000863135	3	-0.00714027	-0.614513	-4.48352e-07	1.13396
2	0	0	1	0	314.266	0.483653	0.483428	-0.000980814	3	-0.00714095	-0.612785	-4.74153e-07	1.09621
2	0	0	1	0	314.986	0.447644	0.447394	-0.00112364	3	-0.00714171	-0.611682	-5.02711e-07	1.05908
2	0	0	0	0	315.706	0.411636	0.411407	-0.00124779	3	-0.00714257	-0.610587	-5.13351e-07	1.02199
2	0	0	1	0	316.426	0.375627	0.375311	-0.00136866	3	-0.00714353	-0.609144	-5.13673e-07	0.984455
2	0	0	0	0	317.146	0.339619	0.339305	-0.00152801	3	-0.00714458	-0.608239	-5.18462e-07	0.947544
2	0	0	1	0	317.866	0.30361	0.303307	-0.00168726	3	-0.00714574	-0.606435	-5.11757e-07	0.909741
2	0	0	0	0	318.587	0.267602	0.267312	-0.00183987	3	-0.00714701	-0.604674	-4.91821e-07	0.871986
2	0	0	1	0	319.307	0.231593	0.231261	-0.00200852	3	-0.0071484	-0.602897	-4.64493e-07	0.834158
2	0	0	1	0	320.027	0.195585	0.195308	-0.00216532	3	-0.00714992	-0.601099	-4.22904e-07	0.796408
2	0	0	0	0	320.747	0.159577	0.159288	-0.00238737	3	-0.00715157	-0.59912	-3.8028e-07	0.758408
2	0	0	1	0	321.467	0.123568	0.123263	-0.00260642	3	-0.00715337	-0.596923	-3.21274e-07	0.720186
2	0	0	0	0	322.187	0.0875596	0.0872744	-0.00280709	3	-0.00715531	-0.594424	-2.44987e-07	0.681698
2	0	0	1	0	322.908	0.0515512	0.0512809	-0.00301338	3	-0.00715742	-0.592181	-1.54529e-07	0.643462
2	0	0	0	0	323.628	0.0155427	0.0152237	-0.00318634	3	-0.00715967	-0.58936	-4.85079e-08	0.604583
2	0	0	0	0	324.348	-0.0204658	-0.0207646	-0.00340864	3	-0.00716206	-0.587352	7.0779e-08	0.566587
2	0	0	1	0	325.068	-0.0564743	-0.0567815	-0.00361247	3	-0.0071646	-0.585102	2.05121e-07	0.528321
2	0	0	0	0	325.788	-0.0924827	-0.092827	-0.00376897	3	-0.00716726	-0.582796	3.49862e-07	0.489969
2	0	0	1	0	326.508	-0.128491	-0.128806	-0.00393206	3	-0.00717004	-0.580492	5.06472e-07	0.451687
2	0	0	0	0	327.229	-0.1645	-0.164798	-0.00405754	3	-0.00717293	-0.577995	6.68675e-07	0.413197
2	0	0	1	0	327.949	-0.200508	-0.200797	-0.0041931	3	-0.00717591	-0.576398	8.41963e-07	0.375601
2	0	0	0	0	328.669	-0.236517	-0.236812	-0.00439764	3	-0.007179	-0.57411	1.04141e-06	0.337298
2	0	0	0	0	329.389	-0.272525	-0.272792	-0.00472095	3	-0.00718228	-0.571431	1.28783e-06	0.298639
2	0	0	1	0	330.109	-0.308534	-0.308809	-0.00523758	3	-0.00718587	-0.565804	1.61741e-06	0.256996
2	0	0	0	0	330.829	-0.344542	-0.344798	-0.00596802	3	-0.00718989	-0.557238	2.05776e-06	0.21244
2	0	0	1	0	331.55	-0.380551	-0.38078	-0.00684018	3	-0.0071945	-0.54688	2.6046e-06	0.1661
2	0	0	0	0	332.27	-0.416559	-0.416902	-0.00789648	3	-0.00719981	-0.532745	3.29205e-06	0.115843
2	0	0	1	0	332.99	-0.452567	-0.452892	-0.0091315	3	-0.00720594	-0.514947	4.13558e-06	0.0620551
2	0	0	1	0	333.742	-0.490173	-0.490512	-0.010799	3	-0.00721341	-0.489814	5.29706e-06	-0.000698328
2	0	0	0	0	334.462	-0.526185	-0.526467	-0.0128499	3	-0.0072219	-0.456502	6.76506e-06	-0.0699653
2	0	0	1	0	335.182	-0.562193	-0.562525	-0.0153878	3	-0.00723205	-0.409814	8.65602e-06	-0.15271
2	0	0	0	0	335.903	-0.598202	-0.598506	-0.0183921	3	-0.00724422	-0.344626	1.10078e-05	-0.25388
2	0	0	1	0	336.623	-0.63421	-0.634538	-0.0219504	3	-0.00725873	-0.264592	1.39284e-05	-0.369947
2	0	0	0	0	337.343	-0.670219	-0.670545	-0.0259144	3	-0.00727594	-0.168756	1.73767e-05	-0.501788
2	0	0	1	0	338.063	-0.706227	-0.706604	-0.0302545	3	-0.00729617	-0.070552	2.13779e-05	-0.636052
2	0	0	1	0	338.783	-0.742236	-0.742504	-0.0348015	3	-0.00731959	0.0283193	2.58403e-05	-0.770823
2	0	0	0	0	339.503	-0.778244	-0.778534	-0.0394367	3	-0.00734634	0.121348	3.07028e-05	-0.899882
2	0	0	1	0	340.224	-0.814253	-0.814569	-0.0441453	3	-0.00737645	0.204137	3.59594e-05	-1.01871
2	0	0	0	0	340.944	-0.850261	-0.850568	-0.0484712	3	-0.0074098	0.27499	4.1228e-05	-1.12556
2	0	0	1	0	341.664	-0.88627	-0.886528	-0.0522093	3	-0.0074461	0.334724	4.6285e-05	-1.22125
2	0	0	0	0	342.384	-0.922278	-0.922608	-0.0558735	3	-0.00748507	0.380728	5.15493e-05	-1.30334
2	0	0	1	0	343.104	-0.958286	-0.958579	-0.0587187	3	-0.0075264	0.427298	5.62865e-05	-1.38588
2	0	0	1	0	343.824	-0.994295	-0.994519	-0.0615573	3	-0.00756971	0.461354	6.12199e-05	-1.45587
2	0	0	0	0	344.545	-1.0303	-1.03059	-0.0637031	3	-0.00761476	0.492329	6.56517e-05	-1.52292
2	0	0	1	0	345.265	-1.06631	-1.06658	-0.0652587	3	-0.00766125	0.515774	6.96035e-05	-1.58235
2	0	0	0	0	345.985	-1.10232	-1.10257	-0.0669452	3	-0.0077089	0.533795	7.38115e-05	-1.63636
2	0	0	1	0	346.705	-1.13833	-1.13859	-0.0681281	3	-0.00775754	0.556298	7.75702e-05	-1.69489
2	0	0	0	0	347.425	-1.17434	-1.17458	-0.0694403	3	-0.00780706	0.569251	8.15633e-05	-1.74383
2	0	0	0	0	348.145	-1.21035	-1.21057	-0.0702371	3	-0.00785731	0.57748	8.50268e-05	-1.78805
2	0	0	1	0	348.866	-1.24635	-1.24663	-0.0709146	3	-0.00790819	0.590007	8.84042e-05	-1.83664
2	0	0	0	0	349.586	-1.28236	-1.28269	-0.0717917	3	-0.0079596	0.6023	9.20868e-05	-1.88499
2	0	0	1	0	350.306	-1.31837	-1.31867	-0.0722563	3	-0.00801147	0.61289	9.52821e-05	-1.93156
2	0	0	0	0	351.026	-1.35438	-1.35462	-0.0728998	3	-0.00806376	0.618478	9.87512e-05	-1.97309
2	0	0	1	0	351.746	-1.39039	-1.39064	-0.073316	3	-0.00811642	0.622264	0.000101957	-2.01291
2	0	0	0	0	352.467	-1.4264	-1.42665	-0.0737898	3	-0.00816942	0.632076	0.000105272	-2.05872
2	0	0	0	0	353.187	-1.46241	-1.46263	-0.0745482	3	-0.00822284	0.635615	0.000109037	-2.09825
2	0	0	1	0	353.907	-1.49841	-1.49867	-0.0752112	3	-0.00827674	0.638003	0.000112717	-2.13668
2	0	0	0	0	354.627	-1.53442	-1.53469	-0.0757824	3	-0.00833115	0.646946	0.000116302	-2.18163
2	0	0	1	0	355.347	-1.57043	-1.57067	-0.076887	3	-0.00838621	0.649106	0.000120764	-2.21977
2	0	0	0	0	356.067	-1.60644	-1.60665	-0.0778186	3	-0.00844196	0.65637	0.000125027	-2.26302
2	0	0	1	0	356.788	-1.64245	-1.64271	-0.0791431	3	-0.00849844	0.65854	0.000130009	-2.30125
2	0	0	1	0	357.508	-1.67846	-1.67872	-0.0806744	3	-0.00855592	0.664088	0.00013543	-2.34281
2	0	0	0	0	358.228	-1.71446	-1.71475	-0.0822667	3	-0.00861461	0.675863	0.000141067	-2.39061
2	0	0	1	0	358.948	-1.75047	-1.75073	-0.0845465	3	-0.00867462	0.685979	0.000148018	-2.43671
2	0	0	0	0	359.668	-1.78648	-1.78671	-0.086943	3	-0.00873631	0.704297	0.000155342	-2.491
2	0	0	1	0	360.388	-1.82249	-1.82272	-0.090147	3	-0.00880004	0.720498	0.000164313	-2.54322
2	0	0	0	0	361.109	-1.8585	-1.85869	-0.0942483	3	-0.00886634	0.741733	0.000175178	-2.60042
2	0	0	1	0	361.829	-1.89451	-1.89469	-0.0987312	3	-0.00893586	0.768867	0.000187065	-2.66355
2	0	0	1	0	362.579	-1.93202	-1.93226	-0.105164	3	-0.00901229	0.78958	0.000203205	-2.72184
2	0	0	0	0	363.299	-1.96802	-1.96828	-0.111412	3	-0.00909023	0.825417	0.000219289	-2.7937
2	1	0	0	1	363.99	-1.99743	-1.99763	-0.116979	3	-0.0091698	0.848977	0.000233681	-2.8466
2	1	0	1	1	364.71	-1.96142	-1.96168	-0.106673	3	-0.00925001	0.811516	0.000209259	-2.7732
2	1	0	0	1	365.43	-1.92541	-1.92564	-0.0984973	3	-0.0093238	0.778349	0.000189671	-2.70399
2	1	0	1	1	366.15	-1.88941	-1.88965	-0.0927678	3	-0.00939255	0.736037	0.000175298	-2.62568
2	1	0	1	1	366.87	-1.8534	-1.85367	-0.0871866	3	-0.0094572	0.690857	0.000161615	-2.54453
2	1	0	0	1	367.591	-1.81739	-1.81768	-0.0825284	3	-0.00951829	0.637937	0.00015001	-2.45562
2	1	0	1	1	368.311	-1.78138	-1.78165	-0.0792199	3	-0.00957646	0.582683	0.000141142	-2.36433
2	1	0	0	1	369.031	-1.74537	-1.74561	-0.0759055	3	-0.00963226	0.528879	0.000132502	-2.27449
2	1	0	1	1	369.751	-1.70936	-1.70964	-0.0737244	3	-0.00968611	0.473871	0.000126042	-2.18351
2	1	0	0	1	370.471	-1.67335	-1.67367	-0.071751	3	-0.00973841	0.435742	0.000120088	-2.10942
2	1	0	0	1	371.191	-1.63735	-1.63764	-0.0698333	3	-0.00978941	0.404671	0.000114362	-2.04231
2	1	0	1	1	371.912	-1.60134	-1.60164	-0.0689072	3	-0.00983944	0.383347	0.000110365	-1.98499
2	1	0	0	1	372.632	-1.56533	-1.56562	-0.0677407	3	-0.00988855	0.350985	0.000106056	-1.91661
2	1	0	1	1	373.352	-1.52932	-1.5296	-0.0667717	3	-0.00993696	0.324003	0.000102134	-1.8536
2	1	0	0	1	374.072	-1.49331	-1.49362	-0.0661188	3	-0.00998484	0.312624	9.87565e-05	-1.80625
2	1	0	1	1	374.792	-1.4573	-1.4576	-0.0651642	3	-0.0100321	0.305711	9.49832e-05	-1.76331
2	1	0	0	1	375.513	-1.4213	-1.42164	-0.0646127	3	-0.0100788	0.288506	9.18558e-05	-1.71014
2	1	0	0	1	376.233	-1.38529	-1.38561	-0.0639718	3	-0.0101251	0.280255	8.86401e-05	-1.66587
2	1	0	1	1	376.953	-1.34928	-1.3496	-0.0631328	3	-0.0101708	0.252313	8.52041e-05	-1.60191
2	1	0	0	1	377.673	-1.31327	-1.31361	-0.0624257	3	-0.010216	0.229791	8.20028e-05	-1.5434
2	1	0	1	1	378.393	-1.27726	-1.2776	-0.0611516	3	-0.0102605	0.206504	7.81276e-05	-1.48411
2	1	0	0	1	379.113	-1.24125	-1.24162	-0.0603636	3	-0.0103043	0.186884	7.49484e-05	-1.4285
2	1	0	1	1	379.834	-1.20524	-1.20555	-0.0590023	3	-0.0103473	0.166867	7.11303e-05	-1.37242
2	1	0	0	1	380.554	-1.16924	-1.16953	-0.0575299	3	-0.0103892	0.141619	6.72831e-05	-1.31115
2	1	0	0	1	381.274	-1.13323	-1.13353	-0.0557829	3	-0.01043	0.102573	6.32313e-05	-1.2361
2	1	0	1	1	381.994	-1.09722	-1.09748	-0.053517	3	-0.0104694	0.0555873	5.8734e-05	-1.15307
2	1	0	0	1	382.714	-1.06121	-1.06149	-0.0507087	3	-0.010507	-0.000987662	5.3827e-05	-1.06051
2	1	0	1	1	383.466	-1.0236	-1.02384	-0.0471532	3	-0.0105438	-0.0654805	4.82775e-05	-0.958364
2	1	0	0	1	383.938	-0.999946	-1.00018	-0.0445608	3	-0.0105654	-0.11563	4.4569e-05	-0.884554