File: RDE_data/02262020_MnO2_RDE_50mVs_2500rpm_ExtendedBounds_IncreasedFlow_C04.mpt
EC-Lab ASCII FILE
Nb header lines : 56

Cyclic Voltammetry

Run on channel : 4 (SN 35517)
User : CESL
CE vs. WE compliance from -10 V to 10 V
Electrode connection : standard
Ewe ctrl range : min = -2.50 V, max = 2.50 V
Safety Limits :
	Do not start on E overload
Acquisition started on : 02/26/2020 13:55:39
Technique started on : 02/26/2020 13:55:39
Saved on :
	File : 02262020_MnO2_RDE_50mVs_2500rpm_ExtendedBounds_IncreasedFlow_C04.mpr
	Directory : C:\Users\CESL\Documents\EC-Lab\Data\Undergrad\Katelyn\EChem\
	Host : 169.254.217.189
Device : VSP (SN 1724172417241724)
Address : USB
EC-Lab for windows v11.16 (software)
Internet server v11.16 (firmware)
Command interpretor v11.16 (firmware)
Electrode material : Au/Pd
Initial state :
Electrolyte : NaCl (0.2M)
Comments : Fe(CN)63-/Fe(CN)64- 5.10-3 M
Reference electrode : SCE Saturated Calomel Electrode (0.241 V)
Electrode surface area : 0.001 cm²
Characteristic mass : 0.001 g
Equivalent Weight : 0.000 g/eq.
Density : 0.000 g/cm3
Cycle Definition : Charge/Discharge alternance
Ei (V)              -1.000
vs.                 Ref
dE/dt               50.000
dE/dt unit          mV/s
E1 (V)              1.200
vs.                 Ref
Step percent        50
N                   10
E range min (V)     -2.500
E range max (V)     2.500
I Range             Auto
I Range min         Unset
I Range max         Unset
I Range init        Unset
Bandwidth           5
E2 (V)              -2.000
vs.                 Ref
nc cycles           3
Reverse Scan        1
Ef (V)              -1.000
vs.                 Ref

mode	ox/red	error	control changes	counter inc.	time/s	control/V	Ewe/V	<I>/mA	cycle number	(Q-Qo)/C	P/W
2	1	0	0	0	0.000000000000000E+000	-0.99698	-0.99744	-0.41132	1	0.0000000E+000	0.000410267
2	1	0	1	0	0.7312	-0.960415	-0.96084	-0.149788	1	-0.000150466	0.000143922
2	1	0	1	0	1.4716	-0.9234	-0.923854	-0.130223	1	-0.000252802	0.000120307
2	1	0	0	0	2.2118	-0.886384	-0.886828	-0.11906	1	-0.00034487	0.000105586
2	1	0	0	0	2.9522	-0.849369	-0.84977	-0.108948	1	-0.00042917	9.2581e-05
2	1	0	1	0	3.6924	-0.812353	-0.812779	-0.0979412	1	-0.00050572	7.96045e-05
2	1	0	1	0	4.4328	-0.775337	-0.775823	-0.0871183	1	-0.000574251	6.75884e-05
2	1	0	0	0	5.1731	-0.738319	-0.738735	-0.0762059	1	-0.000634652	5.62959e-05
2	1	0	0	0	5.9134	-0.701306	-0.701765	-0.0665535	1	-0.000687346	4.67049e-05
2	1	0	0	0	6.6538	-0.664291	-0.664737	-0.0585521	1	-0.000733529	3.89217e-05
2	1	0	1	0	7.394	-0.627275	-0.62775	-0.0526525	1	-0.000774504	3.30526e-05
2	1	0	1	0	8.1644	-0.588759	-0.589205	-0.0469233	1	-0.000812791	2.76474e-05
2	1	0	0	0	8.9046	-0.551744	-0.55214	-0.0403582	1	-0.00084507	2.22834e-05
2	1	0	0	0	9.645	-0.514728	-0.51516	-0.0323592	1	-0.00087204	1.66702e-05
2	1	0	1	0	10.3852	-0.477712	-0.478182	-0.0239274	1	-0.000892814	1.14416e-05
2	1	0	1	0	11.1256	-0.440697	-0.441139	-0.0160853	1	-0.000907566	7.09586e-06
2	1	0	1	0	11.866	-0.403681	-0.404172	-0.0093616	1	-0.000916897	3.78369e-06
2	1	0	0	0	12.6382	-0.365065	-0.365491	-0.0041684	1	-0.000922026	1.52351e-06
2	1	0	0	0	13.3786	-0.32805	-0.328444	-0.000793561	1	-0.000923746	2.60641e-07
2	1	0	1	0	14.1188	-0.291034	-0.291429	0.00143773	1	-0.00092342	-4.18997e-07
2	1	0	1	0	14.8592	-0.254018	-0.25442	0.00264449	1	-0.000921826	-6.7281e-07
2	1	0	0	0	15.5994	-0.217003	-0.217401	0.00356045	1	-0.000919478	-7.74044e-07
2	1	0	0	0	16.3398	-0.179987	-0.180444	0.00393768	1	-0.000916677	-7.10529e-07
2	1	0	1	0	17.0801	-0.142971	-0.143324	0.00403121	1	-0.00091371	-5.77769e-07
2	1	0	1	0	17.8204	-0.105956	-0.106353	0.00401953	1	-0.000910698	-4.27489e-07
2	1	0	1	0	18.5608	-0.0689406	-0.0693503	0.0040321	1	-0.000907691	-2.79627e-07
2	1	0	0	0	19.301	-0.0319251	-0.0323252	0.00401754	1	-0.000904688	-1.29868e-07
2	1	0	0	0	20.0414	0.0050905	0.00477837	0.00399328	1	-0.000901717	1.90814e-08
2	1	0	1	0	20.7816	0.042106	0.0417897	0.00396926	1	-0.000898758	1.65874e-07
2	1	0	1	0	21.522	0.0791216	0.0788009	0.00400969	1	-0.000895816	3.15967e-07
2	1	0	0	0	22.2622	0.116137	0.11581	0.00399731	1	-0.000892852	4.62928e-07
2	1	0	0	0	23.0026	0.153153	0.152825	0.00406018	1	-0.000889848	6.20495e-07
2	1	0	1	0	23.7429	0.190171	0.18985	0.00412304	1	-0.000886807	7.82759e-07
2	1	0	1	0	24.4832	0.227184	0.226835	0.00418645	1	-0.000883702	9.49635e-07
2	1	0	1	0	25.2236	0.264199	0.263868	0.00435767	1	-0.000880524	1.14985e-06
2	1	0	0	0	25.9638	0.301215	0.300858	0.00446526	1	-0.000877255	1.34341e-06
2	1	0	0	0	26.7042	0.33823	0.337914	0.00463323	1	-0.000873868	1.56563e-06
2	1	0	1	0	27.4444	0.375246	0.374915	0.00477496	1	-0.000870354	1.7902e-06
2	1	0	1	0	28.1848	0.412261	0.411924	0.0050371	1	-0.000866697	2.0749e-06
2	1	0	0	0	28.925	0.449277	0.448991	0.00531187	1	-0.00086282	2.38498e-06
2	1	0	0	0	29.6654	0.486292	0.485955	0.00575484	1	-0.000858721	2.79659e-06
2	1	0	1	0	30.4057	0.523312	0.522963	0.00614014	1	-0.000854334	3.21107e-06
2	1	0	1	0	31.146	0.560324	0.560012	0.00651375	1	-0.000849643	3.64778e-06
2	1	0	1	0	31.8864	0.597339	0.597092	0.00710986	1	-0.00084459	4.24524e-06
2	1	0	0	0	32.6266	0.634355	0.634023	0.00761496	1	-0.000839141	4.82806e-06
2	1	0	0	0	33.367	0.67137	0.671062	0.00826915	1	-0.000833241	5.54912e-06
2	1	0	1	0	34.1072	0.708386	0.708115	0.00894901	1	-0.000826845	6.33693e-06
2	1	0	1	0	34.8476	0.745401	0.745152	0.00974695	1	-0.000819914	7.26295e-06
2	1	0	0	0	35.6198	0.784017	0.783682	0.0104788	1	-0.000812077	8.21205e-06
2	1	0	0	0	36.3602	0.821033	0.820706	0.0113602	1	-0.000803965	9.32335e-06
2	1	0	0	0	37.1006	0.858049	0.857734	0.0122381	1	-0.00079521	1.0497e-05
2	1	0	1	0	37.8408	0.895064	0.894759	0.0132179	1	-0.000785773	1.18268e-05
2	1	0	1	0	38.5812	0.93208	0.931789	0.0143582	1	-0.00077554	1.33788e-05
2	1	0	0	0	39.3214	0.969095	0.968799	0.0156953	1	-0.000764392	1.52056e-05
2	1	0	0	0	40.0618	1.00611	1.00583	0.017457	1	-0.000752082	1.75587e-05
2	1	0	1	0	40.802	1.04313	1.04287	0.0194419	1	-0.000738419	2.02754e-05
2	1	0	1	0	41.5424	1.08014	1.07988	0.0218054	1	-0.000723158	2.35473e-05
2	1	0	0	0	42.2826	1.11716	1.11689	0.0246991	1	-0.000705963	2.75862e-05
2	1	0	0	0	43.023	1.15417	1.15396	0.0283134	1	-0.000686364	3.26726e-05
2	1	0	0	0	43.7634	1.19119	1.19094	0.0325754	1	-0.000663863	3.87953e-05
2	0	0	1	0	44.452	1.17438	1.17409	0.0247321	1	-0.000643432	2.90377e-05
2	0	0	1	0	45.1924	1.13737	1.13707	0.0176739	1	-0.000628009	2.00965e-05
2	0	0	0	0	45.9326	1.10035	1.10005	0.0130957	1	-0.000616752	1.44059e-05
2	0	0	0	0	46.673	1.06333	1.06301	0.0100615	1	-0.000608273	1.06954e-05
2	0	0	1	0	47.4132	1.02632	1.02603	0.00776832	1	-0.000601757	7.97052e-06
2	0	0	1	0	48.1536	0.989304	0.989041	0.00605696	1	-0.000596678	5.99058e-06
2	0	0	1	0	48.926	0.950687	0.950355	0.00468248	1	-0.000592568	4.45001e-06
2	0	0	0	0	49.6662	0.913672	0.913348	0.00366033	1	-0.000589505	3.34315e-06
2	0	0	0	0	50.4066	0.876656	0.876325	0.00280657	1	-0.000587151	2.45947e-06
2	0	0	1	0	51.1468	0.839641	0.839317	0.00208256	1	-0.000585363	1.74793e-06
2	0	0	1	0	51.8872	0.802625	0.802317	0.00153192	1	-0.000584039	1.22908e-06
2	0	0	0	0	52.6274	0.76561	0.76531	0.000987249	1	-0.000583118	7.55551e-07
2	0	0	0	0	53.3678	0.728594	0.728245	0.00056615	1	-0.000582555	4.12295e-07
2	0	0	1	0	54.108	0.691579	0.691226	9.78722e-05	1	-0.000582312	6.76518e-08
2	0	0	1	0	54.8484	0.654563	0.654191	-0.000239356	1	-0.000582362	-1.56584e-07
2	0	0	1	0	55.5888	0.617548	0.61722	-0.000634126	1	-0.000582697	-3.91395e-07
2	0	0	0	0	56.329	0.580532	0.58018	-0.00101582	1	-0.00058333	-5.8936e-07
2	0	0	0	0	57.0694	0.543516	0.543176	-0.00139377	1	-0.000584233	-7.57061e-07
2	0	0	1	0	57.8096	0.506501	0.50613	-0.00175441	1	-0.000585411	-8.8796e-07
2	0	0	1	0	58.55	0.469485	0.46911	-0.00215528	1	-0.000586871	-1.01107e-06
2	0	0	0	0	59.2902	0.43247	0.432186	-0.00246817	1	-0.000588612	-1.06671e-06
2	0	0	0	0	60.0306	0.395454	0.395138	-0.00296802	1	-0.000590642	-1.17278e-06
2	0	0	1	0	60.7708	0.358439	0.35807	-0.00333657	1	-0.000592964	-1.19473e-06
2	0	0	1	0	61.5112	0.321423	0.321016	-0.00379311	1	-0.000595589	-1.21765e-06
2	0	0	1	0	62.2516	0.284408	0.28403	-0.00414055	1	-0.000598501	-1.17604e-06
2	0	0	0	0	62.9918	0.247392	0.247011	-0.00450817	1	-0.000601705	-1.11357e-06
2	0	0	0	0	63.7322	0.210377	0.210014	-0.00492938	1	-0.000605211	-1.03524e-06
2	0	0	1	0	64.4724	0.173361	0.172976	-0.00528375	1	-0.000608991	-9.1396e-07
2	0	0	1	0	65.2128	0.136346	0.136005	-0.00563443	1	-0.000613056	-7.66308e-07
2	0	0	0	0	65.953	0.0993301	0.0990092	-0.00596983	1	-0.000617389	-5.91068e-07
2	0	0	0	0	66.6934	0.0623145	0.0619873	-0.00637254	1	-0.000621977	-3.95017e-07
2	0	0	1	0	67.4336	0.025299	0.0249028	-0.00664974	1	-0.000626837	-1.65597e-07
2	0	0	1	0	68.174	-0.0117166	-0.0121912	-0.00714043	1	-0.000631965	8.70507e-08
2	0	0	1	0	68.9144	-0.0487321	-0.0491983	-0.00751016	1	-0.000637368	3.69487e-07
2	0	0	0	0	69.6546	-0.0857477	-0.0861767	-0.00796413	1	-0.000643106	6.86322e-07
2	0	0	0	0	70.395	-0.122763	-0.123158	-0.00838346	1	-0.000649192	1.03249e-06
2	0	0	1	0	71.1352	-0.159779	-0.160238	-0.00888347	1	-0.000655597	1.42346e-06
2	0	0	1	0	71.8756	-0.196794	-0.197269	-0.0094406	1	-0.000662354	1.86234e-06
2	0	0	0	0	72.6158	-0.23381	-0.234261	-0.0102305	1	-0.000669622	2.39661e-06
2	0	0	0	0	73.3882	-0.272426	-0.272829	-0.0113617	1	-0.000677982	3.09979e-06
2	0	0	1	0	74.1285	-0.309442	-0.309865	-0.0132139	1	-0.000687065	4.09452e-06
2	0	0	1	0	74.8688	-0.346457	-0.346892	-0.0160316	1	-0.000697825	5.56124e-06
2	0	0	1	0	75.6092	-0.383473	-0.383877	-0.0203791	1	-0.000711224	7.82307e-06
2	0	0	0	0	76.3494	-0.420488	-0.420908	-0.026646	1	-0.000728508	1.12155e-05
2	0	0	0	0	77.0898	-0.457504	-0.457937	-0.0343365	1	-0.000751038	1.5724e-05
2	0	0	1	0	77.83	-0.494519	-0.494944	-0.042765	1	-0.000779644	2.11663e-05
2	0	0	1	0	78.5704	-0.531535	-0.531927	-0.0516998	1	-0.000814682	2.75005e-05
2	0	0	0	0	79.3106	-0.568551	-0.568982	-0.060367	1	-0.000856243	3.43478e-05
2	0	0	0	0	80.051	-0.605566	-0.605977	-0.0680933	1	-0.000903859	4.1263e-05
2	0	0	1	0	80.7913	-0.642583	-0.643044	-0.0747123	1	-0.000956709	4.80433e-05
2	0	0	1	0	81.5316	-0.679597	-0.680066	-0.0813889	1	-0.00101442	5.53498e-05
2	0	0	1	0	82.272	-0.716613	-0.717078	-0.0895412	1	-0.00107768	6.4208e-05
2	0	0	0	0	83.0122	-0.753628	-0.754096	-0.0990703	1	-0.00114748	7.47085e-05
2	0	0	0	0	83.7826	-0.792144	-0.792623	-0.109533	1	-0.00122794	8.68187e-05
2	0	0	1	0	84.5228	-0.82916	-0.829593	-0.119285	1	-0.00131269	9.8958e-05
2	0	0	1	0	85.2632	-0.866176	-0.866643	-0.128121	1	-0.00140433	0.000111036
2	0	0	0	0	86.0034	-0.903191	-0.90363	-0.135725	1	-0.00150205	0.000122645
2	0	0	0	0	86.7438	-0.940207	-0.940667	-0.142424	1	-0.00160511	0.000133973
2	0	0	0	0	87.4842	-0.977222	-0.977688	-0.148106	1	-0.00171262	0.000144801
2	0	0	1	0	88.2244	-1.01424	-1.01466	-0.152836	1	-0.00182392	0.000155077
2	0	0	1	0	88.9648	-1.05125	-1.05168	-0.157075	1	-0.00193862	0.000165192
2	0	0	0	0	89.705	-1.08827	-1.0887	-0.160745	1	-0.00205637	0.000175003
2	0	0	0	0	90.4454	-1.12528	-1.12572	-0.16443	1	-0.0021768	0.000185102
2	0	0	1	0	91.1856	-1.1623	-1.1627	-0.167653	1	-0.00229973	0.00019493
2	0	0	1	0	91.926	-1.19932	-1.1997	-0.170773	1	-0.00242502	0.000204877
2	0	0	0	0	92.6662	-1.23633	-1.23673	-0.173765	1	-0.00255257	0.0002149
2	0	0	0	0	93.4066	-1.27335	-1.27379	-0.176213	1	-0.00268209	0.000224459
2	0	0	0	0	94.147	-1.31036	-1.31079	-0.17934	1	-0.00281374	0.000235078
2	0	0	1	0	94.8872	-1.34738	-1.34778	-0.182093	1	-0.0029474	0.000245422
2	0	0	1	0	95.6276	-1.38439	-1.38484	-0.184562	1	-0.00308329	0.00025559
2	0	0	0	0	96.3678	-1.42141	-1.4218	-0.18756	1	-0.00322127	0.000266673
2	0	0	0	0	97.1082	-1.45842	-1.45878	-0.19102	1	-0.00336163	0.000278656
2	0	0	1	0	97.8484	-1.49544	-1.49585	-0.194605	1	-0.00350447	0.000291101
2	0	0	1	0	98.5888	-1.53246	-1.53285	-0.19892	1	-0.00365016	0.000304914
2	0	0	0	0	99.329	-1.56947	-1.56986	-0.203724	1	-0.00379921	0.000319817
2	0	0	0	0	100.069	-1.60649	-1.60686	-0.209621	1	-0.00395207	0.000336833
2	0	0	0	0	100.81	-1.6435	-1.64392	-0.216081	1	-0.00410935	0.000355221
2	0	0	1	0	101.55	-1.68052	-1.68092	-0.223753	1	-0.00427212	0.000376113
2	0	0	1	0	102.29	-1.71753	-1.71794	-0.233215	1	-0.00444113	0.000400649
2	0	0	0	0	103.031	-1.75455	-1.75493	-0.244474	1	-0.0046178	0.000429036
2	0	0	0	0	103.771	-1.79156	-1.79195	-0.257206	1	-0.00480339	0.000460899
2	0	0	1	0	104.511	-1.82858	-1.82894	-0.270225	1	-0.00499863	0.000494227
2	0	0	1	0	105.252	-1.8656	-1.866	-0.284503	1	-0.00520378	0.000530883
2	0	0	0	0	105.992	-1.90261	-1.903	-0.300867	1	-0.00542016	0.000572549
2	0	0	0	0	106.732	-1.93963	-1.94002	-0.320722	1	-0.0056499	0.000622205
2	0	0	0	0	107.473	-1.97664	-1.97698	-0.341031	1	-0.00589503	0.000674213
2	1	0	0	1	108.191	-1.98745	-1.98779	-0.339843	1	-0.00614526	0.000675536
2	1	0	0	1	108.932	-1.95043	-1.95079	-0.308438	1	-0.00638429	0.000601698
2	1	0	1	1	109.672	-1.91342	-1.91378	-0.285611	1	-0.00660385	0.000546596
2	1	0	1	1	110.412	-1.8764	-1.87681	-0.267172	1	-0.00680813	0.000501431
2	1	0	0	1	111.153	-1.83938	-1.83979	-0.251445	1	-0.00699992	0.000462605
2	1	0	0	1	111.893	-1.80237	-1.8028	-0.236865	1	-0.00718082	0.000427021
2	1	0	1	1	112.633	-1.76535	-1.76576	-0.225097	1	-0.00735187	0.000397466
2	1	0	1	1	113.374	-1.72834	-1.7288	-0.213559	1	-0.00751418	0.000369201
2	1	0	0	1	114.114	-1.69132	-1.69174	-0.202939	1	-0.0076681	0.00034332
2	1	0	0	1	114.854	-1.65431	-1.6548	-0.192274	1	-0.00781447	0.000318175
2	1	0	0	1	115.595	-1.61729	-1.6177	-0.18377	1	-0.00795369	0.000297285
2	1	0	1	1	116.335	-1.58028	-1.58068	-0.175615	1	-0.00808657	0.000277592
2	1	0	1	1	117.075	-1.54326	-1.54364	-0.168611	1	-0.00821393	0.000260274
2	1	0	0	1	117.815	-1.50624	-1.50662	-0.163734	1	-0.00833694	0.000246685
2	1	0	0	1	118.556	-1.46923	-1.46964	-0.158714	1	-0.00845611	0.000233253
2	1	0	1	1	119.296	-1.43221	-1.4326	-0.155252	1	-0.00857217	0.000222414
2	1	0	1	1	120.036	-1.3952	-1.39559	-0.151734	1	-0.00868577	0.000211758
2	1	0	0	1	120.777	-1.35818	-1.3586	-0.148671	1	-0.00879688	0.000201985
2	1	0	0	1	121.517	-1.32117	-1.32162	-0.145882	1	-0.00890595	0.000192801
2	1	0	0	1	122.257	-1.28415	-1.28461	-0.142755	1	-0.00901282	0.000183385
2	1	0	1	1	122.998	-1.24714	-1.24758	-0.139826	1	-0.00911733	0.000174443
2	1	0	1	1	123.738	-1.21012	-1.21053	-0.136313	1	-0.00921949	0.000165011
2	1	0	0	1	124.478	-1.1731	-1.17355	-0.132966	1	-0.00931914	0.000156042
2	1	0	0	1	125.219	-1.13609	-1.13651	-0.129226	1	-0.00941612	0.000146866
2	1	0	1	1	125.959	-1.09907	-1.09949	-0.124492	1	-0.00951003	0.000136877
2	1	0	1	1	126.699	-1.06206	-1.06249	-0.118795	1	-0.0096001	0.000126218
2	1	0	0	1	127.439	-1.02504	-1.02547	-0.111944	1	-0.00968547	0.000114796
2	1	0	0	1	128.154	-0.989327	-0.989746	-0.104211	2	-0.00976269	0.000103142
2	1	0	1	1	128.894	-0.952311	-0.952794	-0.0948538	2	-0.00983638	9.03762e-05
2	1	0	1	1	129.634	-0.915296	-0.915759	-0.0842869	2	-0.00990273	7.71865e-05
2	1	0	1	1	130.375	-0.878281	-0.878748	-0.0731474	2	-0.00996103	6.42781e-05
2	1	0	0	1	131.115	-0.841265	-0.841713	-0.0615396	2	-0.0100108	5.17987e-05
2	1	0	0	1	131.855	-0.80425	-0.80474	-0.0499986	2	-0.0100521	4.02359e-05
2	1	0	1	1	132.626	-0.765733	-0.766165	-0.0389813	2	-0.0100862	2.98661e-05
2	1	0	1	1	133.366	-0.728718	-0.729159	-0.029323	2	-0.0101114	2.13811e-05
2	1	0	0	1	134.106	-0.691702	-0.692118	-0.0210805	2	-0.0101299	1.45902e-05
2	1	0	0	1	134.847	-0.654687	-0.655127	-0.0144964	2	-0.0101429	9.497e-06
2	1	0	0	1	135.587	-0.617671	-0.618101	-0.00911069	2	-0.0101515	5.63133e-06
2	1	0	1	1	136.327	-0.580656	-0.581094	-0.00468714	2	-0.0101565	2.72367e-06
2	1	0	1	1	137.1	-0.542039	-0.542443	-0.00108379	2	-0.0101587	5.87894e-07
2	1	0	0	1	137.84	-0.505024	-0.505435	0.00125694	2	-0.0101586	-6.35301e-07
2	1	0	0	1	138.58	-0.468008	-0.468386	0.00268143	2	-0.0101571	-1.25595e-06
2	1	0	1	1	139.32	-0.430993	-0.431381	0.00370366	2	-0.0101548	-1.59769e-06
2	1	0	1	1	140.061	-0.393977	-0.394401	0.00452631	2	-0.0101518	-1.78518e-06
2	1	0	0	1	140.801	-0.356964	-0.357299	0.00578777	2	-0.010148	-2.06796e-06
2	1	0	0	1	141.541	-0.319946	-0.320327	0.00702966	2	-0.0101432	-2.25179e-06
2	1	0	0	1	142.282	-0.282931	-0.283347	0.00834523	2	-0.0101375	-2.36459e-06
2	1	0	1	1	143.022	-0.245915	-0.2463	0.00938763	2	-0.0101309	-2.31218e-06
2	1	0	1	1	143.762	-0.208899	-0.209295	0.00999887	2	-0.0101237	-2.09272e-06
2	1	0	0	1	144.535	-0.170283	-0.170698	0.0103968	2	-0.0101158	-1.77471e-06
2	1	0	0	1	145.275	-0.133268	-0.133678	0.0104744	2	-0.010108	-1.4002e-06
2	1	0	1	1	146.015	-0.0962521	-0.0966479	0.0104446	2	-0.0101003	-1.00945e-06
2	1	0	1	1	146.756	-0.0592365	-0.0596514	0.010482	2	-0.0100925	-6.25268e-07
2	1	0	1	1	147.496	-0.022221	-0.022638	0.0105184	2	-0.0100846	-2.38115e-07
2	1	0	0	1	148.236	0.0147946	0.0144115	0.0105669	2	-0.0100768	1.52285e-07
2	1	0	0	1	148.977	0.0518101	0.0514461	0.0105618	2	-0.0100689	5.43365e-07
2	1	0	1	1	149.717	0.0888256	0.0884532	0.0106606	2	-0.010061	9.42968e-07
2	1	0	1	1	150.457	0.125841	0.125427	0.0107892	2	-0.010053	1.35325e-06
2	1	0	0	1	151.197	0.162857	0.162496	0.0109155	2	-0.0100449	1.77373e-06
2	1	0	0	1	151.938	0.199872	0.199505	0.0110244	2	-0.0100368	2.19942e-06
2	1	0	1	1	152.678	0.236888	0.236511	0.0111712	2	-0.0100285	2.64211e-06
2	1	0	1	1	153.418	0.273903	0.273566	0.0113345	2	-0.0100202	3.10074e-06
2	1	0	1	1	154.159	0.310919	0.310573	0.0116018	2	-0.0100117	3.60322e-06
2	1	0	0	1	154.899	0.347934	0.347549	0.011594	2	-0.010003	4.02947e-06
2	1	0	0	1	155.639	0.38495	0.384562	0.0117649	2	-0.00999435	4.52434e-06
2	1	0	1	1	156.38	0.421965	0.421592	0.0118305	2	-0.00998559	4.98766e-06
2	1	0	1	1	157.12	0.458981	0.458648	0.0120346	2	-0.00997675	5.51966e-06
2	1	0	0	1	157.86	0.495997	0.495638	0.0121615	2	-0.00996779	6.02771e-06
2	1	0	0	1	158.601	0.533012	0.532633	0.0124689	2	-0.00995865	6.64134e-06
2	1	0	1	1	159.341	0.570028	0.56967	0.0128313	2	-0.00994927	7.30962e-06
2	1	0	1	1	160.081	0.607043	0.606699	0.0133474	2	-0.00993956	8.09784e-06
2	1	0	1	1	160.822	0.644059	0.643696	0.0139252	2	-0.00992945	8.96361e-06
2	1	0	0	1	161.562	0.681074	0.680779	0.0147004	2	-0.00991883	1.00077e-05
2	1	0	0	1	162.302	0.71809	0.717812	0.0155483	2	-0.00990763	1.11607e-05
2	1	0	1	1	163.042	0.755105	0.754771	0.0164311	2	-0.00989577	1.24017e-05
2	1	0	1	1	163.783	0.792121	0.791808	0.0172923	2	-0.00988327	1.36922e-05
2	1	0	0	1	164.523	0.829136	0.828778	0.0183714	2	-0.00987005	1.52258e-05
2	1	0	0	1	165.263	0.866152	0.865816	0.0195271	2	-0.00985599	1.69069e-05
2	1	0	1	1	166.004	0.903167	0.902902	0.0209159	2	-0.009841	1.8885e-05
2	1	0	1	1	166.744	0.940183	0.939912	0.0223618	2	-0.00982497	2.10182e-05
2	1	0	1	1	167.484	0.977198	0.976917	0.0240411	2	-0.00980777	2.34861e-05
2	1	0	0	1	168.225	1.01421	1.01392	0.0259368	2	-0.00978924	2.62977e-05
2	1	0	0	1	168.965	1.05123	1.05096	0.0280078	2	-0.00976922	2.94352e-05
2	1	0	1	1	169.705	1.08825	1.08793	0.030264	2	-0.00974759	3.29251e-05
2	1	0	1	1	170.446	1.12526	1.12495	0.0330577	2	-0.00972414	3.71881e-05
2	1	0	0	1	171.186	1.16228	1.16201	0.0360808	2	-0.00969858	4.19262e-05
2	1	0	0	1	171.926	1.19929	1.199	0.0393009	2	-0.00967068	4.7122e-05
2	0	0	1	1	172.613	1.16638	1.16616	0.0268243	2	-0.00964853	3.12813e-05
2	0	0	1	1	173.353	1.12936	1.1291	0.0194902	2	-0.00963166	2.20065e-05
2	0	0	1	1	174.094	1.09235	1.09206	0.0149285	2	-0.00961907	1.63028e-05
2	0	0	0	1	174.834	1.05533	1.05505	0.0117728	2	-0.00960931	1.24208e-05
2	0	0	0	1	175.574	1.01832	1.01799	0.00941919	2	-0.00960156	9.58868e-06
2	0	0	1	1	176.314	0.9813	0.980989	0.00760603	2	-0.00959533	7.46143e-06
2	0	0	1	1	177.055	0.944285	0.944001	0.00622909	2	-0.00959027	5.88027e-06
2	0	0	0	1	177.795	0.907269	0.906956	0.00507661	2	-0.00958614	4.60427e-06
2	0	0	0	1	178.567	0.868653	0.868298	0.00409066	2	-0.00958264	3.55191e-06
2	0	0	0	1	179.308	0.831637	0.831287	0.00335062	2	-0.00957991	2.78533e-06
2	0	0	1	1	180.048	0.794622	0.794277	0.00272462	2	-0.00957769	2.1641e-06
2	0	0	1	1	180.788	0.757606	0.757278	0.00211949	2	-0.00957593	1.60504e-06
2	0	0	0	1	181.529	0.720591	0.720261	0.00161394	2	-0.00957456	1.16246e-06
2	0	0	0	1	182.269	0.683575	0.683277	0.00117455	2	-0.00957354	8.02545e-07
2	0	0	1	1	183.009	0.64656	0.646228	0.000721866	2	-0.00957287	4.6649e-07
2	0	0	1	1	183.75	0.609544	0.609173	0.000319372	2	-0.0095725	1.94553e-07
2	0	0	0	1	184.49	0.572529	0.572186	-7.84287e-05	2	-0.00957243	-4.48758e-08
2	0	0	0	1	185.23	0.535513	0.535106	-0.000480908	2	-0.00957265	-2.57337e-07
2	0	0	0	1	185.971	0.498498	0.49814	-0.000901632	2	-0.00957316	-4.49139e-07
2	0	0	1	1	186.711	0.461482	0.46111	-0.0012453	2	-0.00957396	-5.74221e-07
2	0	0	1	1	187.451	0.424467	0.424074	-0.00167246	2	-0.00957505	-7.09248e-07
2	0	0	0	1	188.191	0.387451	0.387034	-0.00206679	2	-0.00957643	-7.99917e-07
2	0	0	0	1	188.932	0.350435	0.350091	-0.00240982	2	-0.00957809	-8.43655e-07
2	0	0	1	1	189.672	0.31342	0.313045	-0.0029065	2	-0.00958008	-9.09864e-07
2	0	0	1	1	190.412	0.276404	0.275988	-0.00329632	2	-0.00958235	-9.09744e-07
2	0	0	0	1	191.153	0.239389	0.238946	-0.00368342	2	-0.00958493	-8.80136e-07
2	0	0	0	1	191.893	0.202373	0.202001	-0.00409327	2	-0.0095878	-8.26845e-07
2	0	0	0	1	192.633	0.165358	0.164989	-0.00442998	2	-0.00959095	-7.30897e-07
2	0	0	1	1	193.374	0.128342	0.127977	-0.00487521	2	-0.0095944	-6.23917e-07
2	0	0	1	1	194.114	0.0913267	0.09098	-0.00513945	2	-0.00959813	-4.67587e-07
2	0	0	0	1	194.854	0.0543112	0.0539167	-0.00562189	2	-0.00960213	-3.03114e-07
2	0	0	0	1	195.595	0.0172956	0.0169182	-0.00594198	2	-0.00960643	-1.00527e-07
2	0	0	1	1	196.335	-0.0197199	-0.0201568	-0.00639535	2	-0.00961101	1.2891e-07
2	0	0	1	1	197.075	-0.0567355	-0.0571416	-0.00682069	2	-0.00961592	3.89745e-07
2	0	0	0	1	197.815	-0.093751	-0.094208	-0.00741901	2	-0.00962121	6.98931e-07
2	0	0	0	1	198.556	-0.130767	-0.131181	-0.00788668	2	-0.00962687	1.03458e-06
2	0	0	0	1	199.296	-0.167782	-0.168192	-0.00847641	2	-0.00963292	1.42567e-06
2	0	0	1	1	200.036	-0.204798	-0.205224	-0.00917975	2	-0.00963945	1.8839e-06
2	0	0	1	1	200.809	-0.243414	-0.243856	-0.0103854	2	-0.00964697	2.53254e-06
2	0	0	0	1	201.549	-0.280429	-0.280853	-0.0123586	2	-0.00965536	3.47093e-06
2	0	0	0	1	202.289	-0.317445	-0.317842	-0.015309	2	-0.00966555	4.86584e-06
2	0	0	1	1	203.03	-0.354461	-0.35493	-0.019307	2	-0.00967828	6.85265e-06
2	0	0	1	1	203.77	-0.391476	-0.391874	-0.0245637	2	-0.00969444	9.62587e-06
2	0	0	0	1	204.51	-0.428492	-0.428943	-0.030889	2	-0.00971494	1.32496e-05
2	0	0	0	1	205.251	-0.465507	-0.465922	-0.0384567	2	-0.00974059	1.79178e-05
2	0	0	0	1	205.991	-0.502523	-0.502958	-0.046263	2	-0.00977191	2.32683e-05
2	0	0	1	1	206.731	-0.539538	-0.539925	-0.0540122	2	-0.00980912	2.91626e-05
2	0	0	1	1	207.472	-0.576554	-0.577018	-0.0616376	2	-0.00985202	3.5566e-05
2	0	0	0	1	208.212	-0.613569	-0.614001	-0.0692238	2	-0.00990058	4.25035e-05
2	0	0	0	1	208.952	-0.650585	-0.651044	-0.0771023	2	-0.00995473	5.0197e-05
2	0	0	1	1	209.692	-0.687601	-0.688019	-0.0855529	2	-0.0100148	5.8862e-05
2	0	0	1	1	210.433	-0.724616	-0.725035	-0.0948154	2	-0.0100816	6.87445e-05
2	0	0	1	1	211.205	-0.763232	-0.76367	-0.104983	2	-0.0101588	8.01721e-05
2	0	0	0	1	211.945	-0.800248	-0.800625	-0.114545	2	-0.01024	9.17079e-05
2	0	0	0	1	212.686	-0.837263	-0.837669	-0.12302	2	-0.0103281	0.00010305
2	0	0	1	1	213.426	-0.874279	-0.874717	-0.130959	2	-0.0104223	0.000114552
2	0	0	1	1	214.166	-0.911295	-0.911734	-0.137818	2	-0.0105219	0.000125654
2	0	0	0	1	214.907	-0.94831	-0.948761	-0.143839	2	-0.0106262	0.000136469
2	0	0	0	1	215.647	-0.985326	-0.985753	-0.148229	2	-0.0107343	0.000146117
2	0	0	1	1	216.387	-1.02234	-1.02276	-0.152777	2	-0.0108458	0.000156255
2	0	0	1	1	217.128	-1.05936	-1.05978	-0.156371	2	-0.0109603	0.000165718
2	0	0	1	1	217.868	-1.09637	-1.09681	-0.159813	2	-0.0110775	0.000175285
2	0	0	0	1	218.608	-1.13339	-1.1338	-0.162457	2	-0.0111969	0.000184193
2	0	0	0	1	219.349	-1.1704	-1.17082	-0.165457	2	-0.0113183	0.00019372
2	0	0	1	1	220.089	-1.20742	-1.20784	-0.167607	2	-0.0114415	0.000202443
2	0	0	1	1	220.829	-1.24443	-1.24483	-0.169794	2	-0.0115664	0.000211365
2	0	0	0	1	221.569	-1.28145	-1.28183	-0.171773	2	-0.0116929	0.000220184
2	0	0	0	1	222.31	-1.31847	-1.31888	-0.174124	2	-0.0118209	0.000229649
2	0	0	1	1	223.05	-1.35548	-1.35589	-0.175905	2	-0.0119505	0.000238509
2	0	0	1	1	223.79	-1.3925	-1.39291	-0.178071	2	-0.0120817	0.000248037
2	0	0	1	1	224.531	-1.42951	-1.42992	-0.180506	2	-0.0122144	0.000258108
2	0	0	0	1	225.271	-1.46653	-1.46692	-0.183483	2	-0.0123491	0.000269155
2	0	0	0	1	226.011	-1.50354	-1.50394	-0.186489	2	-0.012486	0.000280469
2	0	0	1	1	226.752	-1.54056	-1.54096	-0.190343	2	-0.0126255	0.000293311
2	0	0	1	1	227.492	-1.57757	-1.57797	-0.194906	2	-0.0127681	0.000307555
2	0	0	0	1	228.232	-1.61459	-1.61497	-0.200397	2	-0.0129143	0.000323635
2	0	0	0	1	228.973	-1.65161	-1.65203	-0.206701	2	-0.0130649	0.000341476
2	0	0	1	1	229.713	-1.68862	-1.68901	-0.214885	2	-0.0132207	0.000362942
2	0	0	1	1	230.453	-1.72564	-1.72603	-0.224014	2	-0.0133833	0.000386654
2	0	0	1	1	231.194	-1.76265	-1.76302	-0.236	2	-0.0135536	0.000416074
2	0	0	0	1	231.934	-1.79967	-1.80002	-0.249138	2	-0.0137332	0.000448452
2	0	0	0	1	232.674	-1.83668	-1.83708	-0.264017	2	-0.0139231	0.00048502
2	0	0	1	1	233.414	-1.8737	-1.87409	-0.280842	2	-0.0141246	0.000526322
2	0	0	1	1	234.155	-1.91071	-1.91107	-0.299937	2	-0.0143393	0.000573201
2	0	0	0	1	234.895	-1.94773	-1.94808	-0.319615	2	-0.0145683	0.000622634
2	0	0	0	1	235.635	-1.98475	-1.98509	-0.340402	2	-0.0148126	0.000675727
2	1	0	0	0	236.352	-1.97944	-1.97981	-0.325276	2	-0.0150561	0.000643986
2	1	0	0	0	237.093	-1.94243	-1.94285	-0.297957	2	-0.0152864	0.000578885
2	1	0	1	0	237.833	-1.90541	-1.90576	-0.27922	2	-0.0154996	0.000532125
2	1	0	1	0	238.573	-1.8684	-1.86876	-0.262315	2	-0.0156996	0.000490204
2	1	0	1	0	239.314	-1.83138	-1.83181	-0.248287	2	-0.0158883	0.000454815
2	1	0	0	0	240.054	-1.79437	-1.79471	-0.235295	2	-0.016067	0.000422285
2	1	0	0	0	240.794	-1.75735	-1.75774	-0.22313	2	-0.0162367	0.000392206
2	1	0	1	0	241.534	-1.72033	-1.72076	-0.212609	2	-0.0163981	0.000365849
2	1	0	1	0	242.275	-1.68332	-1.68375	-0.202488	2	-0.0165516	0.000340939
2	1	0	0	0	243.015	-1.6463	-1.64671	-0.192882	2	-0.0166977	0.000317621
2	1	0	0	0	243.755	-1.60929	-1.60965	-0.183887	2	-0.0168369	0.000295994
2	1	0	1	0	244.496	-1.57227	-1.57266	-0.175972	2	-0.01697	0.000276745
2	1	0	1	0	245.236	-1.53526	-1.53565	-0.169235	2	-0.0170977	0.000259887
2	1	0	1	0	245.976	-1.49824	-1.49865	-0.162917	2	-0.0172205	0.000244155
2	1	0	0	0	246.717	-1.46123	-1.46163	-0.158954	2	-0.0173395	0.000232332
2	1	0	0	0	247.457	-1.42421	-1.42463	-0.1544	2	-0.0174554	0.000219963
2	1	0	1	0	248.197	-1.38719	-1.38759	-0.151225	2	-0.0175685	0.000209837
2	1	0	1	0	248.938	-1.35018	-1.35061	-0.148148	2	-0.0176794	0.000200091
2	1	0	0	0	249.678	-1.31316	-1.31357	-0.1452	2	-0.017788	0.00019073
2	1	0	0	0	250.418	-1.27615	-1.27654	-0.142387	2	-0.0178946	0.000181762
2	1	0	1	0	251.158	-1.23913	-1.23957	-0.139443	2	-0.017999	0.000172849
2	1	0	1	0	251.899	-1.20212	-1.20255	-0.136633	2	-0.0181011	0.000164308
2	1	0	1	0	252.639	-1.1651	-1.16552	-0.133656	2	-0.0182011	0.000155779
2	1	0	0	0	253.379	-1.12809	-1.12852	-0.129647	2	-0.0182986	0.000146309
2	1	0	0	0	254.12	-1.09107	-1.09154	-0.125304	2	-0.0183932	0.000136774
2	1	0	1	0	254.86	-1.05405	-1.05457	-0.120006	2	-0.0184841	0.000126555
2	1	0	1	0	255.6	-1.01704	-1.01749	-0.113519	2	-0.0185706	0.000115504
2	1	0	0	0	256.315	-0.981324	-0.981766	-0.105872	3	-0.018649	0.000103942
2	1	0	0	0	257.055	-0.944308	-0.944769	-0.0967514	3	-0.018724	9.14077e-05
2	1	0	1	0	257.795	-0.907293	-0.907779	-0.0867183	3	-0.018792	7.8721e-05
2	1	0	1	0	258.536	-0.870277	-0.870768	-0.0756707	3	-0.0188521	6.58916e-05
2	1	0	0	0	259.276	-0.833262	-0.833794	-0.06456	3	-0.018904	5.38298e-05
2	1	0	0	0	260.016	-0.796246	-0.796738	-0.0537324	3	-0.0189477	4.28106e-05
2	1	0	0	0	260.789	-0.75763	-0.75805	-0.042691	3	-0.0189848	3.23619e-05
2	1	0	1	0	261.529	-0.720614	-0.721045	-0.0330534	3	-0.0190127	2.3833e-05
2	1	0	1	0	262.269	-0.683599	-0.684081	-0.0248663	3	-0.0190341	1.70105e-05
2	1	0	0	0	263.009	-0.646583	-0.647031	-0.0182469	3	-0.0190499	1.18063e-05
2	1	0	0	0	263.75	-0.609568	-0.610006	-0.01285	3	-0.0190613	7.83857e-06
2	1	0	1	0	264.49	-0.572552	-0.572982	-0.00857099	3	-0.0190692	4.91102e-06
2	1	0	1	0	265.23	-0.535537	-0.535992	-0.00545382	3	-0.0190742	2.9232e-06
2	1	0	1	0	266.003	-0.49692	-0.497316	-0.00332816	3	-0.0190775	1.65515e-06
2	1	0	0	0	266.743	-0.459905	-0.46033	-0.00271162	3	-0.0190796	1.24824e-06
2	1	0	0	0	267.483	-0.422889	-0.423345	-0.00216856	3	-0.0190814	9.18048e-07
2	1	0	1	0	268.224	-0.385874	-0.386293	-0.000598154	3	-0.0190825	2.31063e-07
2	1	0	1	0	268.964	-0.348858	-0.349288	0.00203053	3	-0.019082	-7.09239e-07
2	1	0	0	0	269.704	-0.311843	-0.312226	0.00456086	3	-0.0190796	-1.42402e-06
2	1	0	0	0	270.445	-0.274827	-0.275224	0.00659883	3	-0.0190754	-1.81616e-06
2	1	0	1	0	271.185	-0.237815	-0.23818	0.00791787	3	-0.01907	-1.88588e-06
2	1	0	1	0	271.925	-0.200796	-0.201219	0.00866599	3	-0.0190638	-1.74376e-06
2	1	0	1	0	272.666	-0.16378	-0.164206	0.00903329	3	-0.0190572	-1.48332e-06
2	1	0	0	0	273.406	-0.126765	-0.127177	0.00929336	3	-0.0190504	-1.1819e-06
2	1	0	0	0	274.146	-0.0897493	-0.0901759	0.00936146	3	-0.0190435	-8.44178e-07
2	1	0	1	0	274.886	-0.0527338	-0.0531201	0.00947139	3	-0.0190365	-5.03121e-07
2	1	0	1	0	275.627	-0.0157182	-0.0161321	0.00953125	3	-0.0190295	-1.53759e-07
2	1	0	0	0	276.367	0.0212973	0.0209853	0.00960298	3	-0.0190224	2.01521e-07
2	1	0	0	0	277.107	0.0583128	0.0579679	0.00960804	3	-0.0190152	5.56958e-07
2	1	0	1	0	277.848	0.0953273	0.0949654	0.00965479	3	-0.0190081	9.1687e-07
2	1	0	1	0	278.588	0.132344	0.132046	0.00968678	3	-0.0190009	1.2791e-06
2	1	0	1	0	279.328	0.169359	0.169029	0.00981068	3	-0.0189937	1.65829e-06
2	1	0	0	0	280.069	0.206375	0.206045	0.00989096	3	-0.0189864	2.03798e-06
2	1	0	0	0	280.809	0.243391	0.243018	0.00995748	3	-0.018979	2.41985e-06
2	1	0	1	0	281.549	0.280406	0.280053	0.0100514	3	-0.0189716	2.81492e-06
2	1	0	1	0	282.29	0.317422	0.317088	0.010223	3	-0.0189641	3.24161e-06
2	1	0	0	0	283.062	0.356038	0.355652	0.0103408	3	-0.0189561	3.6777e-06
2	1	0	0	0	283.802	0.393053	0.392648	0.0104528	3	-0.0189484	4.10427e-06
2	1	0	0	0	284.543	0.430069	0.429756	0.0105482	3	-0.0189406	4.53313e-06
2	1	0	1	0	285.283	0.467084	0.466717	0.0108454	3	-0.0189327	5.06174e-06
2	1	0	1	0	286.023	0.5041	0.503761	0.0110964	3	-0.0189245	5.58992e-06
2	1	0	0	0	286.763	0.541115	0.540802	0.0114174	3	-0.0189161	6.17453e-06
2	1	0	0	0	287.504	0.578131	0.577799	0.0118374	3	-0.0189075	6.83965e-06
2	1	0	1	0	288.244	0.615147	0.614818	0.0124009	3	-0.0188985	7.6243e-06
2	1	0	1	0	288.984	0.652162	0.651841	0.0130558	3	-0.0188891	8.51028e-06
2	1	0	0	0	289.725	0.689178	0.688851	0.013829	3	-0.0188791	9.52608e-06
2	1	0	0	0	290.465	0.726193	0.725885	0.0146784	3	-0.0188685	1.06548e-05
2	1	0	0	0	291.205	0.763209	0.762895	0.0156782	3	-0.0188572	1.19608e-05
2	1	0	1	0	291.946	0.800224	0.799878	0.016721	3	-0.0188452	1.33748e-05
2	1	0	1	0	292.686	0.83724	0.836942	0.0178217	3	-0.0188324	1.49157e-05
2	1	0	0	0	293.426	0.874255	0.873915	0.0189107	3	-0.0188188	1.65264e-05
2	1	0	0	0	294.167	0.911271	0.910972	0.0202016	3	-0.0188043	1.84031e-05
2	1	0	1	0	294.907	0.948286	0.948003	0.0217097	3	-0.0187887	2.05809e-05
2	1	0	1	0	295.647	0.985302	0.985009	0.0233073	3	-0.0187721	2.29579e-05
2	1	0	0	0	296.387	1.02232	1.02204	0.0251368	3	-0.0187541	2.56907e-05
2	1	0	0	0	297.128	1.05933	1.05905	0.0270835	3	-0.0187348	2.86826e-05
2	1	0	0	0	297.868	1.09635	1.09604	0.0292554	3	-0.0187139	3.2065e-05
2	1	0	1	0	298.608	1.13336	1.13306	0.0316934	3	-0.0186913	3.59106e-05
2	1	0	1	0	299.349	1.17038	1.17011	0.0345393	3	-0.0186668	4.04148e-05
2	0	0	0	0	300.033	1.19539	1.19511	0.0344453	3	-0.0186423	4.11659e-05
2	0	0	0	0	300.774	1.15837	1.15807	0.0235281	3	-0.0186214	2.72472e-05
2	0	0	1	0	301.514	1.12136	1.12105	0.0175142	3	-0.0186064	1.96343e-05
2	0	0	1	0	302.254	1.08434	1.08405	0.0136624	3	-0.018595	1.48108e-05
2	0	0	0	0	302.995	1.04733	1.04704	0.0109655	3	-0.0185859	1.14813e-05
2	0	0	0	0	303.735	1.01031	1.01002	0.00896741	3	-0.0185786	9.05723e-06
2	0	0	0	0	304.475	0.973297	0.972997	0.00737671	3	-0.0185726	7.17752e-06
2	0	0	1	0	305.216	0.936281	0.936017	0.00609764	3	-0.0185677	5.70749e-06
2	0	0	1	0	305.956	0.899266	0.898992	0.00505869	3	-0.0185636	4.54772e-06
2	0	0	0	0	306.728	0.86065	0.860296	0.00416276	3	-0.01856	3.58121e-06
2	0	0	0	0	307.469	0.823634	0.823281	0.00345157	3	-0.0185572	2.84161e-06
2	0	0	1	0	308.209	0.786619	0.786312	0.00285257	3	-0.0185549	2.24301e-06
2	0	0	1	0	308.949	0.749603	0.749295	0.00226886	3	-0.018553	1.70004e-06
2	0	0	1	0	309.69	0.712587	0.712281	0.0018057	3	-0.0185515	1.28616e-06
2	0	0	0	0	310.43	0.675572	0.675225	0.00133476	3	-0.0185504	9.01265e-07
2	0	0	0	0	311.17	0.638556	0.638208	0.000859982	3	-0.0185496	5.48848e-07
2	0	0	1	0	311.91	0.601541	0.60116	0.000501105	3	-0.0185491	3.01244e-07
2	0	0	1	0	312.651	0.564525	0.564161	9.75783e-05	3	-0.0185489	5.50499e-08
2	0	0	0	0	313.391	0.52751	0.527134	-0.000295272	3	-0.0185489	-1.55648e-07
2	0	0	0	0	314.131	0.490494	0.490092	-0.000655017	3	-0.0185493	-3.21019e-07
2	0	0	1	0	314.872	0.453479	0.453152	-0.00103192	3	-0.0185499	-4.67614e-07
2	0	0	1	0	315.612	0.416463	0.416147	-0.00137674	3	-0.0185508	-5.72927e-07
2	0	0	1	0	316.352	0.379448	0.379069	-0.00173855	3	-0.018552	-6.59029e-07
2	0	0	0	0	317.093	0.342432	0.342056	-0.0021683	3	-0.0185535	-7.41682e-07
2	0	0	0	0	317.833	0.305417	0.305059	-0.00252947	3	-0.0185552	-7.71637e-07
2	0	0	1	0	318.573	0.268401	0.26801	-0.00291274	3	-0.0185573	-7.80643e-07
2	0	0	1	0	319.314	0.231385	0.231049	-0.00331545	3	-0.0185596	-7.66032e-07
2	0	0	0	0	320.054	0.19437	0.193987	-0.00374529	3	-0.0185622	-7.26536e-07
2	0	0	0	0	320.794	0.157354	0.156981	-0.00411998	3	-0.0185651	-6.46757e-07
2	0	0	1	0	321.534	0.120339	0.119975	-0.00445855	3	-0.0185683	-5.34914e-07
2	0	0	1	0	322.275	0.0833233	0.0829603	-0.00484315	3	-0.0185718	-4.0179e-07
2	0	0	1	0	323.015	0.0463078	0.0459363	-0.00521847	3	-0.0185755	-2.39717e-07
2	0	0	0	0	323.755	0.00929227	0.00886245	-0.00566207	3	-0.0185796	-5.01798e-08
2	0	0	0	0	324.496	-0.0277233	-0.0281648	-0.00608781	3	-0.0185839	1.71462e-07
2	0	0	1	0	325.236	-0.0647388	-0.065174	-0.0065331	3	-0.0185886	4.25788e-07
2	0	0	1	0	325.976	-0.101754	-0.102171	-0.00703927	3	-0.0185936	7.19212e-07
2	0	0	0	0	326.717	-0.13877	-0.139222	-0.00748623	3	-0.0185989	1.04225e-06
2	0	0	0	0	327.457	-0.175786	-0.176226	-0.00803488	3	-0.0186047	1.41595e-06
2	0	0	1	0	328.197	-0.212801	-0.213244	-0.00881193	3	-0.0186109	1.87909e-06
2	0	0	1	0	328.938	-0.249817	-0.250285	-0.0101948	3	-0.018618	2.55161e-06
2	0	0	1	0	329.71	-0.288433	-0.288873	-0.0122686	3	-0.0186266	3.54407e-06
2	0	0	0	0	330.45	-0.325448	-0.325935	-0.015351	3	-0.0186367	5.00341e-06
2	0	0	0	0	331.191	-0.362464	-0.362911	-0.0194014	3	-0.0186496	7.04098e-06
2	0	0	1	0	331.931	-0.399479	-0.399933	-0.02436	3	-0.0186657	9.74235e-06
2	0	0	1	0	332.671	-0.436495	-0.436932	-0.0301534	3	-0.0186859	1.3175e-05
2	0	0	0	0	333.411	-0.473511	-0.473959	-0.036976	3	-0.0187107	1.75251e-05
2	0	0	0	0	334.152	-0.510526	-0.510969	-0.044404	3	-0.0187408	2.2689e-05
2	0	0	1	0	334.892	-0.547541	-0.54798	-0.052008	3	-0.0187765	2.84994e-05
2	0	0	1	0	335.632	-0.584557	-0.585009	-0.0597692	3	-0.018818	3.49655e-05
2	0	0	1	0	336.373	-0.621573	-0.621978	-0.0672937	3	-0.0188651	4.18552e-05
2	0	0	0	0	337.113	-0.658588	-0.659009	-0.0751461	3	-0.0189178	4.95219e-05
2	0	0	0	0	337.853	-0.695604	-0.696083	-0.0841752	3	-0.0189768	5.85929e-05
2	0	0	1	0	338.594	-0.732619	-0.733084	-0.0935668	3	-0.0190425	6.85924e-05
2	0	0	1	0	339.35	-0.770435	-0.770925	-0.103534	3	-0.0191171	7.98172e-05
2	0	0	0	0	340.106	-0.808251	-0.808668	-0.113369	3	-0.0191992	9.16778e-05
2	0	0	0	0	340.847	-0.845267	-0.845664	-0.122105	3	-0.0192864	0.00010326
2	0	0	0	0	341.587	-0.882282	-0.882727	-0.129714	3	-0.0193796	0.000114502
2	0	0	1	0	342.327	-0.919298	-0.919709	-0.136607	3	-0.0194783	0.000125639
2	0	0	1	0	343.068	-0.956313	-0.956739	-0.142325	3	-0.0195816	0.000136167
2	0	0	0	0	343.808	-0.993329	-0.993766	-0.147292	3	-0.0196889	0.000146374
2	0	0	0	0	344.548	-1.03034	-1.03081	-0.151714	3	-0.0197996	0.000156389
2	0	0	1	0	345.288	-1.06736	-1.06779	-0.155391	3	-0.0199132	0.000165925
2	0	0	1	0	346.029	-1.10438	-1.10484	-0.15863	3	-0.0200294	0.00017526
2	0	0	0	0	346.769	-1.14139	-1.14181	-0.161368	3	-0.0201479	0.000184251
2	0	0	0	0	347.509	-1.17841	-1.17882	-0.164308	3	-0.0202686	0.000193691
2	0	0	0	0	348.25	-1.21542	-1.21585	-0.166161	3	-0.0203911	0.000202027
2	0	0	1	0	348.99	-1.25244	-1.25286	-0.16885	3	-0.0205152	0.000211545
2	0	0	1	0	349.73	-1.28945	-1.28986	-0.171025	3	-0.0206411	0.000220598
2	0	0	0	0	350.471	-1.32647	-1.32685	-0.173243	3	-0.0207685	0.000229868
2	0	0	0	0	351.211	-1.36348	-1.36391	-0.174787	3	-0.0208973	0.000238393
2	0	0	1	0	351.951	-1.4005	-1.40091	-0.177234	3	-0.0210276	0.000248289
2	0	0	1	0	352.692	-1.43752	-1.43792	-0.179845	3	-0.0211596	0.000258604
2	0	0	0	0	353.432	-1.47453	-1.47494	-0.182624	3	-0.0212936	0.00026936
2	0	0	0	0	354.172	-1.51155	-1.51192	-0.185429	3	-0.0214298	0.000280353
2	0	0	0	0	354.913	-1.54856	-1.54894	-0.189157	3	-0.0215686	0.000292992
2	0	0	1	0	355.653	-1.58558	-1.58594	-0.193779	3	-0.0217103	0.000307323
2	0	0	1	0	356.393	-1.62259	-1.62298	-0.198709	3	-0.0218556	0.000322502
2	0	0	0	0	357.133	-1.65961	-1.66001	-0.205466	3	-0.0220054	0.000341075
2	0	0	0	0	357.874	-1.69662	-1.69706	-0.213565	3	-0.0221606	0.000362431
2	0	0	1	0	358.614	-1.73364	-1.73403	-0.223509	3	-0.0223224	0.000387572
2	0	0	1	0	359.354	-1.77066	-1.7711	-0.23519	3	-0.0224921	0.000416543
2	0	0	0	0	360.095	-1.80767	-1.80803	-0.249091	3	-0.022671	0.000450363
2	0	0	0	0	360.835	-1.84469	-1.84506	-0.263273	3	-0.0228608	0.000485756
2	0	0	0	0	361.575	-1.8817	-1.88209	-0.281753	3	-0.0230629	0.000530284
2	0	0	1	0	362.316	-1.91872	-1.91908	-0.300286	3	-0.0232782	0.000576274
2	0	0	1	0	363.056	-1.95573	-1.95609	-0.320219	3	-0.0235078	0.000626376
2	0	0	0	0	363.796	-1.99275	-1.99312	-0.341563	3	-0.023753	0.000680777
2	1	0	1	1	364.513	-1.97144	-1.97181	-0.314487	3	-0.0239902	0.000620108
2	1	0	0	1	365.253	-1.93442	-1.93477	-0.290361	3	-0.0242139	0.000561784
2	1	0	0	1	365.994	-1.89741	-1.89777	-0.272853	3	-0.0244219	0.000517811
2	1	0	1	1	366.734	-1.86039	-1.86081	-0.255908	3	-0.0246175	0.000476195
2	1	0	1	1	367.474	-1.82338	-1.82378	-0.243034	3	-0.0248021	0.00044324
2	1	0	0	1	368.215	-1.78636	-1.78673	-0.231581	3	-0.0249777	0.000413773
2	1	0	0	1	368.955	-1.74935	-1.74975	-0.220088	3	-0.0251445	0.000385099
2	1	0	0	1	369.695	-1.71233	-1.71278	-0.209389	3	-0.0253032	0.000358638
2	1	0	1	1	370.436	-1.67532	-1.67577	-0.198823	3	-0.0254543	0.000333181
2	1	0	1	1	371.176	-1.6383	-1.63869	-0.189794	3	-0.0255984	0.000311013
2	1	0	0	1	371.916	-1.60128	-1.60167	-0.181515	3	-0.0257357	0.000290726
2	1	0	0	1	372.657	-1.56427	-1.56467	-0.17391	3	-0.0258671	0.000272112
2	1	0	1	1	373.397	-1.52725	-1.5277	-0.167047	3	-0.0259932	0.000255198
2	1	0	1	1	374.137	-1.49024	-1.49067	-0.161486	3	-0.0261149	0.000240722
2	1	0	0	1	374.877	-1.45322	-1.4536	-0.15698	3	-0.0262327	0.000228186
2	1	0	0	1	375.618	-1.41621	-1.41663	-0.153326	3	-0.0263475	0.000217206
2	1	0	0	1	376.358	-1.37919	-1.37962	-0.149905	3	-0.0264598	0.000206811
2	1	0	1	1	377.098	-1.34218	-1.34261	-0.147047	3	-0.0265697	0.000197426
2	1	0	1	1	377.839	-1.30516	-1.30561	-0.143889	3	-0.0266773	0.000187864
2	1	0	0	1	378.579	-1.26814	-1.2686	-0.141349	3	-0.026783	0.000179316
2	1	0	0	1	379.319	-1.23113	-1.23158	-0.13837	3	-0.0268865	0.000170414
2	1	0	1	1	380.06	-1.19411	-1.1945	-0.13567	3	-0.0269879	0.000162059
2	1	0	1	1	380.8	-1.1571	-1.15753	-0.132225	3	-0.0270873	0.000153055
2	1	0	0	1	381.54	-1.12008	-1.12049	-0.129015	3	-0.0271841	0.00014456
2	1	0	0	1	382.281	-1.08307	-1.08348	-0.124272	3	-0.027278	0.000134646
2	1	0	0	1	383.021	-1.04605	-1.04653	-0.118787	3	-0.027368	0.000124314
2	1	0	1	1	383.761	-1.00904	-1.00948	-0.111825	3	-0.0274535	0.000112885
2	1	0	1	1	384.476	-0.973321	-0.973727	-0.103995	4	-0.0275306	0.000101263
2	1	0	0	1	385.216	-0.936305	-0.936763	-0.0947208	4	-0.0276042	8.8731e-05
2	1	0	0	1	385.956	-0.899289	-0.899756	-0.0842851	4	-0.0276704	7.5836e-05
2	1	0	1	1	386.696	-0.862274	-0.862719	-0.0732224	4	-0.0277287	6.31703e-05
2	1	0	1	1	387.437	-0.825258	-0.825755	-0.0619411	4	-0.0277787	5.11481e-05
2	1	0	0	1	388.177	-0.788243	-0.788735	-0.05096	4	-0.0278204	4.01939e-05
2	1	0	0	1	388.949	-0.749627	-0.750076	-0.040306	4	-0.0278555	3.02326e-05
2	1	0	0	1	389.69	-0.712611	-0.713055	-0.0310682	4	-0.0278819	2.21534e-05
2	1	0	1	1	390.43	-0.675596	-0.676043	-0.0236921	4	-0.027902	1.60169e-05
2	1	0	1	1	391.17	-0.63858	-0.639002	-0.0176001	4	-0.0279172	1.12465e-05
2	1	0	0	1	391.911	-0.601564	-0.601965	-0.0127601	4	-0.0279283	7.68115e-06
2	1	0	0	1	392.651	-0.564549	-0.56496	-0.00888525	4	-0.0279362	5.01981e-06
2	1	0	1	1	393.391	-0.527533	-0.527973	-0.00591941	4	-0.0279416	3.12529e-06
2	1	0	1	1	394.164	-0.488917	-0.489349	-0.00442688	4	-0.0279455	2.16629e-06
2	1	0	1	1	394.904	-0.451902	-0.452327	-0.00400457	4	-0.0279486	1.81137e-06
2	1	0	0	1	395.644	-0.414886	-0.415362	-0.00323467	4	-0.0279514	1.34356e-06
2	1	0	0	1	396.385	-0.37787	-0.378237	-0.000961111	4	-0.027953	3.63528e-07
2	1	0	1	1	397.125	-0.340855	-0.341284	0.00196064	4	-0.0279526	-6.69137e-07
2	1	0	1	1	397.865	-0.303839	-0.304232	0.00462484	4	-0.0279501	-1.40702e-06
2	1	0	0	1	398.605	-0.266824	-0.267217	0.00659119	4	-0.0279459	-1.76128e-06
2	1	0	0	1	399.346	-0.229808	-0.230208	0.0077109	4	-0.0279406	-1.77511e-06
2	1	0	1	1	400.086	-0.192793	-0.193179	0.00845129	4	-0.0279346	-1.63261e-06
2	1	0	1	1	400.826	-0.155777	-0.156209	0.00874167	4	-0.0279282	-1.36552e-06
2	1	0	0	1	401.567	-0.118765	-0.119156	0.00888516	4	-0.0279217	-1.05872e-06
2	1	0	0	1	402.307	-0.081746	-0.0821711	0.00896475	4	-0.027915	-7.36644e-07
2	1	0	0	1	403.047	-0.0447304	-0.0451365	0.00902434	4	-0.0279084	-4.07327e-07
2	1	0	1	1	403.788	-0.00771488	-0.00808595	0.00901184	4	-0.0279017	-7.28692e-08
2	1	0	1	1	404.528	0.0293007	0.0289582	0.00899457	4	-0.027895	2.60467e-07
2	1	0	0	1	405.268	0.0663162	0.06596	0.00901911	4	-0.0278883	5.949e-07
2	1	0	0	1	406.009	0.103332	0.10299	0.00894443	4	-0.0278817	9.2119e-07
2	1	0	1	1	406.749	0.140347	0.140009	0.00895665	4	-0.027875	1.25401e-06
2	1	0	1	1	407.489	0.177363	0.177021	0.00898674	4	-0.0278683	1.59085e-06
2	1	0	0	1	408.229	0.214376	0.214003	0.00904003	4	-0.0278616	1.9346e-06
2	1	0	0	1	408.97	0.251394	0.251041	0.00917578	4	-0.0278549	2.3035e-06
2	1	0	0	1	409.71	0.288409	0.288121	0.00930533	4	-0.027848	2.68106e-06
2	1	0	1	1	410.45	0.325425	0.32508	0.00947348	4	-0.027841	3.07964e-06
2	1	0	1	1	411.191	0.36244	0.362085	0.00959239	4	-0.027834	3.47326e-06
2	1	0	0	1	411.931	0.399456	0.399119	0.0097761	4	-0.0278268	3.90182e-06
2	1	0	0	1	412.671	0.436472	0.436178	0.00986528	4	-0.0278195	4.30302e-06
2	1	0	1	1	413.412	0.473487	0.473166	0.0101078	4	-0.0278121	4.78265e-06
2	1	0	1	1	414.184	0.512103	0.5118	0.0103313	4	-0.0278042	5.28754e-06
2	1	0	1	1	414.924	0.549119	0.548792	0.0107174	4	-0.0277964	5.88164e-06
2	1	0	0	1	415.665	0.586134	0.585754	0.0111418	4	-0.0277882	6.52637e-06
2	1	0	0	1	416.405	0.62315	0.622752	0.0116751	4	-0.0277798	7.27069e-06
2	1	0	1	1	417.145	0.660165	0.659805	0.012314	4	-0.0277709	8.12482e-06
2	1	0	1	1	417.886	0.697181	0.696851	0.0131373	4	-0.0277614	9.15478e-06
2	1	0	0	1	418.626	0.734196	0.733876	0.0139817	4	-0.0277514	1.02609e-05
2	1	0	0	1	419.366	0.771212	0.770921	0.014907	4	-0.0277406	1.14921e-05
2	1	0	1	1	420.106	0.808228	0.807891	0.0159181	4	-0.0277292	1.28601e-05
2	1	0	1	1	420.847	0.845243	0.844941	0.0169811	4	-0.027717	1.4348e-05
2	1	0	1	1	421.587	0.882259	0.881932	0.0181634	4	-0.027704	1.60189e-05
2	1	0	0	1	422.327	0.919274	0.918968	0.0194025	4	-0.0276901	1.78303e-05
2	1	0	0	1	423.068	0.95629	0.956	0.0208041	4	-0.0276752	1.98887e-05
2	1	0	1	1	423.808	0.993305	0.992978	0.0223424	4	-0.0276591	2.21855e-05
2	1	0	1	1	424.548	1.03032	1.03003	0.0241392	4	-0.0276419	2.48642e-05
2	1	0	0	1	425.289	1.06734	1.06703	0.0261508	4	-0.0276232	2.79036e-05
2	1	0	0	1	426.029	1.10435	1.1041	0.0282353	4	-0.0276031	3.11744e-05
2	1	0	1	1	426.769	1.14137	1.14109	0.0305058	4	-0.0275814	3.48099e-05
2	1	0	1	1	427.51	1.17838	1.17807	0.0332515	4	-0.0275578	3.91725e-05
2	0	0	1	1	428.194	1.18739	1.18713	0.0295285	4	-0.027535	3.50541e-05
2	0	0	0	1	428.935	1.15037	1.15009	0.0207561	4	-0.0275168	2.38714e-05
2	0	0	0	1	429.675	1.11336	1.11305	0.0156652	4	-0.0275035	1.74362e-05
2	0	0	1	1	430.415	1.07634	1.07608	0.0123521	4	-0.0274932	1.32919e-05
2	0	0	1	1	431.156	1.03932	1.03899	0.00994156	4	-0.0274851	1.03292e-05
2	0	0	0	1	431.896	1.00231	1.00198	0.00813726	4	-0.0274784	8.15339e-06
2	0	0	0	1	432.636	0.965293	0.964976	0.00675502	4	-0.0274729	6.51843e-06
2	0	0	1	1	433.376	0.928279	0.927924	0.00565467	4	-0.0274684	5.2471e-06
2	0	0	1	1	434.149	0.889662	0.889321	0.00461677	4	-0.0274645	4.10579e-06
2	0	0	1	1	434.889	0.852646	0.852311	0.00386119	4	-0.0274614	3.29094e-06
2	0	0	0	1	435.629	0.815631	0.815277	0.00317548	4	-0.0274588	2.58889e-06
2	0	0	0	1	436.37	0.778615	0.778214	0.00260205	4	-0.0274567	2.02495e-06
2	0	0	1	1	437.11	0.7416	0.741229	0.00207552	4	-0.027455	1.53844e-06
2	0	0	1	1	437.85	0.704584	0.704272	0.00160992	4	-0.0274536	1.13382e-06
2	0	0	0	1	438.591	0.667569	0.667248	0.00119072	4	-0.0274526	7.94507e-07
2	0	0	0	1	439.331	0.630553	0.630192	0.000783946	4	-0.0274519	4.94036e-07
2	0	0	0	1	440.071	0.593537	0.593227	0.000384432	4	-0.0274515	2.28056e-07
2	0	0	1	1	440.812	0.556522	0.556165	1.81765e-05	4	-0.0274513	1.01091e-08
2	0	0	1	1	441.552	0.519506	0.519117	-0.000369589	4	-0.0274515	-1.9186e-07
2	0	0	0	1	442.292	0.482491	0.482212	-0.000715095	4	-0.0274519	-3.44828e-07
2	0	0	0	1	443.033	0.445475	0.445112	-0.00108158	4	-0.0274525	-4.81422e-07
2	0	0	1	1	443.773	0.40846	0.408067	-0.00139056	4	-0.0274535	-5.67439e-07
2	0	0	1	1	444.513	0.371444	0.37106	-0.0017429	4	-0.0274547	-6.46719e-07
2	0	0	0	1	445.253	0.334429	0.334093	-0.00212434	4	-0.0274561	-7.09725e-07
2	0	0	0	1	445.994	0.297413	0.297073	-0.0025221	4	-0.0274579	-7.49247e-07
2	0	0	0	1	446.734	0.260398	0.260029	-0.00290655	4	-0.0274599	-7.55786e-07
2	0	0	1	1	447.474	0.223382	0.223035	-0.00328229	4	-0.0274622	-7.32065e-07
2	0	0	1	1	448.215	0.186367	0.185985	-0.003611	4	-0.0274647	-6.71593e-07
2	0	0	0	1	448.955	0.149351	0.148939	-0.00403932	4	-0.0274676	-6.01612e-07
2	0	0	0	1	449.695	0.112336	0.111982	-0.00438222	4	-0.0274707	-4.90729e-07
2	0	0	1	1	450.436	0.07532	0.0749577	-0.00471639	4	-0.027474	-3.5353e-07
2	0	0	1	1	451.176	0.0383044	0.0379061	-0.00511145	4	-0.0274777	-1.93755e-07
2	0	0	0	1	451.916	0.00128891	0.000918122	-0.00542151	4	-0.0274816	-4.97761e-09
2	0	0	0	1	452.657	-0.0357266	-0.0361653	-0.00581628	4	-0.0274858	2.10348e-07
2	0	0	0	1	453.397	-0.0727422	-0.0731384	-0.00624613	4	-0.0274902	4.56832e-07
2	0	0	1	1	454.137	-0.109758	-0.110245	-0.00670277	4	-0.027495	7.38949e-07
2	0	0	1	1	454.878	-0.146773	-0.147208	-0.00718824	4	-0.0275002	1.05816e-06
2	0	0	0	1	455.618	-0.183789	-0.184225	-0.00783519	4	-0.0275058	1.44344e-06
2	0	0	0	1	456.358	-0.220804	-0.221244	-0.00867481	4	-0.0275119	1.91925e-06
2	0	0	1	1	457.098	-0.25782	-0.25824	-0.0100978	4	-0.0275188	2.60765e-06
2	0	0	1	1	457.871	-0.296436	-0.29687	-0.0123373	4	-0.0275274	3.66257e-06
2	0	0	0	1	458.611	-0.33345	-0.333915	-0.0154869	4	-0.0275377	5.1713e-06
2	0	0	0	1	459.351	-0.370467	-0.370938	-0.0193773	4	-0.0275505	7.18778e-06
2	0	0	0	1	460.092	-0.407483	-0.407952	-0.0241712	4	-0.0275666	9.86071e-06
2	0	0	1	1	460.832	-0.444498	-0.444903	-0.0296413	4	-0.0275865	1.31875e-05
2	0	0	1	1	461.572	-0.481514	-0.481931	-0.0360664	4	-0.0276109	1.73816e-05
2	0	0	0	1	462.313	-0.51853	-0.518901	-0.0433004	4	-0.0276403	2.24686e-05
2	0	0	0	1	463.053	-0.555545	-0.55596	-0.0508701	4	-0.0276751	2.82818e-05
2	0	0	1	1	463.793	-0.592561	-0.592978	-0.0586123	4	-0.0277156	3.47558e-05
2	0	0	1	1	464.534	-0.629576	-0.629999	-0.0664891	4	-0.0277619	4.1888e-05
2	0	0	0	1	465.274	-0.666591	-0.667017	-0.0747252	4	-0.0278142	4.9843e-05
2	0	0	0	1	466.014	-0.703607	-0.704013	-0.0835909	4	-0.0278728	5.88491e-05
2	0	0	0	1	466.755	-0.740623	-0.741062	-0.093443	4	-0.0279383	6.9247e-05
2	0	0	1	1	467.495	-0.777638	-0.778071	-0.103082	4	-0.028011	8.02053e-05
2	0	0	1	1	468.265	-0.816154	-0.816575	-0.113073	4	-0.0280944	9.23326e-05
2	0	0	0	1	469.005	-0.85317	-0.853574	-0.122035	4	-0.0281814	0.000104166
2	0	0	0	1	469.746	-0.890186	-0.890613	-0.129496	4	-0.0282746	0.000115331
2	0	0	1	1	470.486	-0.927201	-0.927631	-0.136076	4	-0.028373	0.000126228
2	0	0	1	1	471.226	-0.964217	-0.964635	-0.141887	4	-0.028476	0.00013687
2	0	0	1	1	471.967	-1.00123	-1.00169	-0.146824	4	-0.028583	0.000147072
2	0	0	0	1	472.707	-1.03825	-1.03865	-0.151017	4	-0.0286934	0.000156853
2	0	0	0	1	473.447	-1.07526	-1.07566	-0.154594	4	-0.0288066	0.000166291
2	0	0	1	1	474.188	-1.11228	-1.11269	-0.158183	4	-0.0289223	0.000176008
2	0	0	1	1	474.928	-1.14929	-1.14968	-0.16089	4	-0.0290405	0.000184972
2	0	0	0	1	475.668	-1.18631	-1.18669	-0.163749	4	-0.0291607	0.000194319
2	0	0	0	1	476.409	-1.22333	-1.22371	-0.165708	4	-0.0292828	0.000202778
2	0	0	1	1	477.149	-1.26034	-1.26078	-0.168383	4	-0.0294065	0.000212293
2	0	0	1	1	477.889	-1.29736	-1.29773	-0.170459	4	-0.029532	0.00022121
2	0	0	1	1	478.63	-1.33437	-1.33481	-0.17251	4	-0.0296589	0.000230269
2	0	0	0	1	479.37	-1.37139	-1.37181	-0.174277	4	-0.0297872	0.000239075
2	0	0	0	1	480.11	-1.4084	-1.40881	-0.176429	4	-0.0299171	0.000248554
2	0	0	1	1	480.85	-1.44542	-1.44584	-0.178923	4	-0.0300486	0.000258693
2	0	0	1	1	481.591	-1.48243	-1.48282	-0.181634	4	-0.0301822	0.000269331
2	0	0	0	1	482.331	-1.51945	-1.51986	-0.184719	4	-0.0303176	0.000280746
2	0	0	0	1	483.071	-1.55647	-1.55681	-0.188461	4	-0.0304557	0.000293398
2	0	0	1	1	483.812	-1.59348	-1.59386	-0.192699	4	-0.0305967	0.000307134
2	0	0	1	1	484.552	-1.6305	-1.63086	-0.198585	4	-0.0307415	0.000323864
2	0	0	1	1	485.292	-1.66751	-1.66791	-0.205259	4	-0.030891	0.000342354
2	0	0	0	1	486.033	-1.70453	-1.70491	-0.213653	4	-0.031046	0.000364259
2	0	0	0	1	486.773	-1.74154	-1.74192	-0.223897	4	-0.0312079	0.00039001
2	0	0	1	1	487.513	-1.77856	-1.77893	-0.236034	4	-0.0313781	0.000419889
2	0	0	1	1	488.254	-1.81557	-1.81594	-0.249254	4	-0.0315576	0.000452629
2	0	0	0	1	488.994	-1.85259	-1.85294	-0.265397	4	-0.031748	0.000491764
2	0	0	0	1	489.734	-1.88961	-1.89002	-0.28274	4	-0.031951	0.000534384
2	0	0	1	1	490.474	-1.92662	-1.92698	-0.301304	4	-0.032167	0.000580608
2	0	0	1	1	491.215	-1.96364	-1.96399	-0.321318	4	-0.0323976	0.000631064
2	1	0	1	0	491.943	-2	-2.00032	-0.340844	4	-0.0326389	0.000681796
2	1	0	1	0	492.674	-1.96344	-1.96382	-0.30518	4	-0.0328729	0.000599319
2	1	0	1	0	493.414	-1.92642	-1.92685	-0.282034	4	-0.0330899	0.000543438
2	1	0	0	0	494.155	-1.88941	-1.88976	-0.264595	4	-0.0332917	0.000500021
2	1	0	0	0	494.895	-1.85239	-1.85276	-0.249975	4	-0.033482	0.000463143
2	1	0	1	0	495.635	-1.81537	-1.81579	-0.237667	4	-0.0336626	0.000431553
2	1	0	1	0	496.376	-1.77836	-1.77873	-0.22631	4	-0.0338344	0.000402545
2	1	0	0	0	497.116	-1.74134	-1.74173	-0.215952	4	-0.0339981	0.000376129
2	1	0	0	0	497.856	-1.70433	-1.70474	-0.205847	4	-0.0341542	0.000350915
2	1	0	1	0	498.596	-1.66731	-1.66773	-0.196316	4	-0.0343028	0.000327402
2	1	0	1	0	499.337	-1.6303	-1.63066	-0.18742	4	-0.0344448	0.000305618
2	1	0	1	0	500.077	-1.59328	-1.59368	-0.179055	4	-0.0345804	0.000285356
2	1	0	0	0	500.817	-1.55627	-1.55665	-0.171702	4	-0.0347103	0.00026728
2	1	0	0	0	501.558	-1.51925	-1.51964	-0.16553	4	-0.0348352	0.000251546
2	1	0	1	0	502.298	-1.48223	-1.48264	-0.160191	4	-0.0349556	0.000237505
2	1	0	1	0	503.038	-1.44522	-1.44559	-0.155725	4	-0.0350725	0.000225116
2	1	0	0	0	503.779	-1.4082	-1.40855	-0.151948	4	-0.0351864	0.000214026
2	1	0	0	0	504.519	-1.37119	-1.3716	-0.149217	4	-0.0352978	0.000204666
2	1	0	1	0	505.259	-1.33417	-1.33461	-0.145724	4	-0.035407	0.000194484
2	1	0	1	0	506	-1.29716	-1.29761	-0.143056	4	-0.0355141	0.000185631
2	1	0	1	0	506.74	-1.26014	-1.26054	-0.140599	4	-0.035619	0.00017723
2	1	0	0	0	507.48	-1.22313	-1.22357	-0.137472	4	-0.0357219	0.000168207
2	1	0	0	0	508.221	-1.18611	-1.18652	-0.135025	4	-0.0358227	0.000160209
2	1	0	1	0	508.961	-1.14909	-1.14952	-0.131849	4	-0.0359213	0.000151563
2	1	0	1	0	509.701	-1.11208	-1.11249	-0.128158	4	-0.0360175	0.000142575
2	1	0	0	0	510.441	-1.07506	-1.07548	-0.123535	4	-0.0361106	0.000132859
2	1	0	0	0	511.182	-1.03805	-1.03849	-0.117241	4	-0.0361997	0.000121754
2	1	0	1	0	511.922	-1.00103	-1.00149	-0.110195	4	-0.0362839	0.000110359
2	1	0	0	0	511.942	-0.999982	-1.00044	-0.109957	4	-0.0362861	0.000110005