File: RDE_data/02262020_MnO2_RDE_50mVs_1600rpm_ExtendedBounds_IncreasedFlow_C04.mpt
EC-Lab ASCII FILE
Nb header lines : 56

Cyclic Voltammetry

Run on channel : 4 (SN 35517)
User : CESL
CE vs. WE compliance from -10 V to 10 V
Electrode connection : standard
Ewe ctrl range : min = -2.50 V, max = 2.50 V
Safety Limits :
	Do not start on E overload
Acquisition started on : 02/26/2020 14:04:45
Technique started on : 02/26/2020 14:04:45
Saved on :
	File : 02262020_MnO2_RDE_50mVs_1600rpm_ExtendedBounds_IncreasedFlow_C04.mpr
	Directory : C:\Users\CESL\Documents\EC-Lab\Data\Undergrad\Katelyn\EChem\
	Host : 169.254.217.189
Device : VSP (SN 1724172417241724)
Address : USB
EC-Lab for windows v11.16 (software)
Internet server v11.16 (firmware)
Command interpretor v11.16 (firmware)
Electrode material : Au/Pd
Initial state :
Electrolyte : NaCl (0.2M)
Comments : Fe(CN)63-/Fe(CN)64- 5.10-3 M
Reference electrode : SCE Saturated Calomel Electrode (0.241 V)
Electrode surface area : 0.001 cm²
Characteristic mass : 0.001 g
Equivalent Weight : 0.000 g/eq.
Density : 0.000 g/cm3
Cycle Definition : Charge/Discharge alternance
Ei (V)              -1.000
vs.                 Ref
dE/dt               50.000
dE/dt unit          mV/s
E1 (V)              1.200
vs.                 Ref
Step percent        50
N                   10
E range min (V)     -2.500
E range max (V)     2.500
I Range             Auto
I Range min         Unset
I Range max         Unset
I Range init        Unset
Bandwidth           5
E2 (V)              -2.000
vs.                 Ref
nc cycles           3
Reverse Scan        1
Ef (V)              -1.000
vs.                 Ref

mode	ox/red	error	control changes	counter inc.	time/s	control/V	Ewe/V	<I>/mA	cycle number	(Q-Qo)/C	P/W
2	1	0	0	0	0.000000000000000E+000	-0.99698	-0.997306	-0.317085	1	0.0000000E+000	0.000316231
2	1	0	1	0	0.7512	-0.959415	-0.959848	-0.114656	1	-0.000119134	0.000110052
2	1	0	1	0	1.5116	-0.921399	-0.921826	-0.0972749	1	-0.000198584	8.96705e-05
2	1	0	0	0	2.2718	-0.883383	-0.883875	-0.0865555	1	-0.000268293	7.65042e-05
2	1	0	0	0	3.0322	-0.845367	-0.845813	-0.0761028	1	-0.000330147	6.43688e-05
2	1	0	0	0	3.7926	-0.807351	-0.807806	-0.0657909	1	-0.000384051	5.31463e-05
2	1	0	1	0	4.5528	-0.769335	-0.769787	-0.054892	1	-0.000429839	4.22551e-05
2	1	0	1	0	5.3452	-0.729718	-0.730168	-0.0442043	1	-0.000469123	3.22766e-05
2	1	0	0	0	6.1054	-0.691702	-0.692129	-0.0354081	1	-0.000499283	2.4507e-05
2	1	0	0	0	6.8658	-0.653686	-0.654109	-0.0281703	1	-0.000523306	1.84265e-05
2	1	0	0	0	7.6262	-0.61567	-0.616122	-0.0223636	1	-0.000542378	1.37787e-05
2	1	0	1	0	8.3864	-0.577654	-0.578084	-0.0175462	1	-0.000557459	1.01432e-05
2	1	0	1	0	9.1468	-0.539638	-0.540085	-0.0136173	1	-0.000569238	7.35452e-06
2	1	0	0	0	9.907	-0.501622	-0.502075	-0.0109038	1	-0.00057843	5.4745e-06
2	1	0	0	0	10.6674	-0.463606	-0.464059	-0.00946746	1	-0.000586096	4.39346e-06
2	1	0	0	0	11.4278	-0.42559	-0.426021	-0.00835612	1	-0.000592934	3.55988e-06
2	1	0	1	0	12.188	-0.387574	-0.388025	-0.00605835	1	-0.00059848	2.35079e-06
2	1	0	1	0	12.9804	-0.347958	-0.348356	-0.00287689	1	-0.000602019	1.00218e-06
2	1	0	0	0	13.7407	-0.309937	-0.310349	0.000160191	1	-0.000602984	-4.97151e-08
2	1	0	0	0	14.501	-0.271926	-0.272315	0.00244526	1	-0.000601958	-6.65882e-07
2	1	0	0	0	15.2614	-0.23391	-0.234321	0.00400942	1	-0.000599465	-9.39489e-07
2	1	0	1	0	16.0216	-0.195894	-0.196295	0.00483697	1	-0.000596089	-9.49473e-07
2	1	0	1	0	16.782	-0.157878	-0.158322	0.00535886	1	-0.000592169	-8.48425e-07
2	1	0	0	0	17.5422	-0.119862	-0.120267	0.00587176	1	-0.000587891	-7.06176e-07
2	1	0	0	0	18.3026	-0.081846	-0.0822687	0.00614314	1	-0.000583315	-5.05389e-07
2	1	0	0	0	19.063	-0.0438301	-0.0442794	0.00641677	1	-0.000578535	-2.84131e-07
2	1	0	1	0	19.8232	-0.00581408	-0.00621682	0.00655262	1	-0.000573588	-4.07365e-08
2	1	0	1	0	20.5836	0.0322019	0.0318489	0.00669239	1	-0.000568528	2.13145e-07
2	1	0	0	0	21.3438	0.0702178	0.0699062	0.00671331	1	-0.000563415	4.69302e-07
2	1	0	0	0	22.1042	0.108234	0.107904	0.00680056	1	-0.000558242	7.33807e-07
2	1	0	0	0	22.8646	0.14625	0.145929	0.00695598	1	-0.000552988	1.01508e-06
2	1	0	1	0	23.6248	0.184266	0.183919	0.00708757	1	-0.000547648	1.30354e-06
2	1	0	1	0	24.3852	0.222282	0.221931	0.00721816	1	-0.000542206	1.60194e-06
2	1	0	0	0	25.1454	0.260298	0.259948	0.00731378	1	-0.000536669	1.90121e-06
2	1	0	0	0	25.9058	0.298314	0.298002	0.00752918	1	-0.000531019	2.24371e-06
2	1	0	0	0	26.6662	0.33633	0.335956	0.00777989	1	-0.000525196	2.6137e-06
2	1	0	1	0	27.4264	0.374345	0.374013	0.00797415	1	-0.000519218	2.98243e-06
2	1	0	1	0	28.1868	0.412361	0.412037	0.00814411	1	-0.000513078	3.35568e-06
2	1	0	0	0	28.947	0.450377	0.450057	0.00834852	1	-0.000506808	3.75731e-06
2	1	0	0	0	29.7074	0.488393	0.488099	0.00860554	1	-0.000500364	4.20035e-06
2	1	0	0	0	30.4678	0.526409	0.526083	0.008921	1	-0.000493705	4.69318e-06
2	1	0	1	0	31.228	0.564425	0.564106	0.00930971	1	-0.000486768	5.25166e-06
2	1	0	1	0	31.9884	0.602441	0.602122	0.00977405	1	-0.00047949	5.88517e-06
2	1	0	0	0	32.7806	0.642058	0.6417	0.0104431	1	-0.00047148	6.70132e-06
2	1	0	0	0	33.541	0.680074	0.679717	0.0111628	1	-0.000463268	7.58752e-06
2	1	0	0	0	34.3014	0.71809	0.717726	0.0119175	1	-0.00045446	8.55352e-06
2	1	0	1	0	35.0616	0.756106	0.755752	0.0128491	1	-0.000445003	9.71071e-06
2	1	0	1	0	35.822	0.794122	0.793818	0.0139203	1	-0.000434795	1.10502e-05
2	1	0	0	0	36.5822	0.832138	0.831819	0.0148917	1	-0.000423826	1.23872e-05
2	1	0	0	0	37.3426	0.870154	0.86987	0.0160227	1	-0.000412035	1.39377e-05
2	1	0	0	0	38.103	0.90817	0.907859	0.017318	1	-0.000399327	1.57223e-05
2	1	0	1	0	38.8632	0.946186	0.945871	0.0187373	1	-0.000385628	1.77231e-05
2	1	0	1	0	39.6236	0.984201	0.983909	0.0202501	1	-0.000370796	1.99242e-05
2	1	0	0	0	40.3838	1.02222	1.0219	0.0218542	1	-0.000354719	2.23327e-05
2	1	0	0	0	41.1442	1.06023	1.05994	0.0238967	1	-0.000337281	2.5329e-05
2	1	0	0	0	41.9046	1.09825	1.09799	0.0258606	1	-0.000318353	2.83946e-05
2	1	0	1	0	42.6648	1.13627	1.13599	0.0282261	1	-0.000297763	3.20647e-05
2	1	0	1	0	43.4252	1.17428	1.17399	0.0307763	1	-0.00027527	3.61313e-05
2	0	0	0	0	44.1319	1.19038	1.19011	0.0286606	1	-0.000253003	3.41092e-05
2	0	0	0	0	44.8922	1.15237	1.1521	0.0195893	1	-0.000235066	2.25687e-05
2	0	0	0	0	45.6526	1.11436	1.1141	0.0145235	1	-0.000222309	1.61806e-05
2	0	0	1	0	46.4128	1.07634	1.07607	0.0112579	1	-0.000212612	1.21143e-05
2	0	0	1	0	47.1732	1.03832	1.03806	0.00893997	1	-0.000204988	9.28019e-06
2	0	0	0	0	47.9334	1.00031	0.999974	0.00734423	1	-0.000198869	7.34403e-06
2	0	0	0	0	48.6938	0.962292	0.961994	0.00597038	1	-0.000193885	5.74347e-06
2	0	0	0	0	49.4542	0.924276	0.923969	0.00488572	1	-0.000189812	4.51426e-06
2	0	0	1	0	50.2464	0.88466	0.884323	0.00392914	1	-0.000186354	3.47463e-06
2	0	0	1	0	51.0068	0.846644	0.846309	0.00319518	1	-0.000183658	2.70411e-06
2	0	0	1	0	51.7672	0.808628	0.808295	0.0026279	1	-0.000181457	2.12412e-06
2	0	0	0	0	52.5274	0.770612	0.770275	0.00211779	1	-0.000179699	1.63128e-06
2	0	0	0	0	53.2878	0.732596	0.732288	0.00157672	1	-0.000178314	1.15462e-06
2	0	0	1	0	54.048	0.69458	0.694287	0.00114864	1	-0.000177292	7.97488e-07
2	0	0	1	0	54.8084	0.656564	0.656258	0.000746398	1	-0.000176583	4.8983e-07
2	0	0	0	0	55.5687	0.618552	0.618221	0.000341445	1	-0.000176195	2.11088e-07
2	0	0	0	0	56.329	0.580532	0.58015	-5.30205e-05	1	-0.000176083	-3.07598e-08
2	0	0	0	0	57.0894	0.542516	0.542137	-0.000351791	1	-0.000176235	-1.90719e-07
2	0	0	1	0	57.8496	0.5045	0.504157	-0.000687295	1	-0.000176659	-3.46505e-07
2	0	0	1	0	58.61	0.466484	0.466163	-0.0010284	1	-0.000177341	-4.79404e-07
2	0	0	0	0	59.3703	0.428468	0.428078	-0.00137762	1	-0.000178274	-5.89731e-07
2	0	0	0	0	60.1306	0.390452	0.390094	-0.0017184	1	-0.000179466	-6.70337e-07
2	0	0	0	0	60.891	0.352436	0.352079	-0.00211626	1	-0.000180924	-7.45091e-07
2	0	0	1	0	61.6512	0.31442	0.313994	-0.00243138	1	-0.000182649	-7.63437e-07
2	0	0	1	0	62.4116	0.276404	0.276047	-0.002788	1	-0.000184652	-7.69618e-07
2	0	0	0	0	63.1719	0.238385	0.238	-0.00316495	1	-0.000186933	-7.53259e-07
2	0	0	0	0	63.9322	0.200372	0.200002	-0.00352807	1	-0.000189502	-7.05619e-07
2	0	0	0	0	64.6926	0.162357	0.161993	-0.00396239	1	-0.000192352	-6.4188e-07
2	0	0	1	0	65.4528	0.124341	0.123955	-0.00424916	1	-0.000195477	-5.26705e-07
2	0	0	1	0	66.2132	0.0863246	0.0859274	-0.00459919	1	-0.000198869	-3.95197e-07
2	0	0	0	0	66.9734	0.0483086	0.0479147	-0.00493202	1	-0.000202509	-2.36316e-07
2	0	0	0	0	67.7338	0.0102927	0.00987975	-0.00526022	1	-0.0002064	-5.19697e-08
2	0	0	0	0	68.4942	-0.0277233	-0.0281626	-0.00559829	1	-0.000210551	1.57663e-07
2	0	0	1	0	69.2544	-0.0657393	-0.0661605	-0.00606163	1	-0.000215014	4.01041e-07
2	0	0	1	0	70.0148	-0.103755	-0.104188	-0.00650644	1	-0.000219815	6.77893e-07
2	0	0	0	0	70.775	-0.141771	-0.142161	-0.006937	1	-0.00022497	9.86175e-07
2	0	0	0	0	71.5354	-0.179787	-0.180209	-0.00758529	1	-0.00023051	1.36694e-06
2	0	0	0	0	72.2958	-0.217803	-0.218238	-0.0083675	1	-0.000236555	1.82611e-06
2	0	0	1	0	73.056	-0.255819	-0.256244	-0.00971215	1	-0.0002434	2.48868e-06
2	0	0	1	0	73.8484	-0.295436	-0.295864	-0.0117708	1	-0.000251846	3.48255e-06
2	0	0	0	0	74.6087	-0.33345	-0.333895	-0.0146497	1	-0.000261852	4.89148e-06
2	0	0	0	0	75.369	-0.371468	-0.371911	-0.0183539	1	-0.000274393	6.82602e-06
2	0	0	0	0	76.1294	-0.409484	-0.409925	-0.0228084	1	-0.000290027	9.34976e-06
2	0	0	1	0	76.8896	-0.4475	-0.447925	-0.0278314	1	-0.000309246	1.24664e-05
2	0	0	1	0	77.65	-0.485516	-0.485916	-0.0337141	1	-0.000332657	1.63822e-05
2	0	0	0	0	78.4103	-0.523533	-0.523915	-0.0403179	1	-0.000360793	2.11231e-05
2	0	0	0	0	79.1706	-0.561548	-0.561983	-0.0473191	1	-0.000394107	2.65925e-05
2	0	0	0	0	79.931	-0.599564	-0.600003	-0.0545997	1	-0.000432863	3.276e-05
2	0	0	1	0	80.6912	-0.637579	-0.638003	-0.0616609	1	-0.000477078	3.93398e-05
2	0	0	1	0	81.4516	-0.675596	-0.676047	-0.0690241	1	-0.000526837	4.66635e-05
2	0	0	0	0	82.2118	-0.713611	-0.714031	-0.0774328	1	-0.000582557	5.52894e-05
2	0	0	0	0	82.9722	-0.751627	-0.752057	-0.0856409	1	-0.000644594	6.44068e-05
2	0	0	0	0	83.7326	-0.789643	-0.790084	-0.0937885	1	-0.000712951	7.41008e-05
2	0	0	1	0	84.4928	-0.827659	-0.828036	-0.10137	1	-0.000787185	8.39377e-05
2	0	0	1	0	85.2852	-0.867276	-0.867712	-0.108226	1	-0.000870367	9.39087e-05
2	0	0	1	0	86.0456	-0.905292	-0.905764	-0.113844	1	-0.000954896	0.000103116
2	0	0	0	0	86.8058	-0.943308	-0.943736	-0.118474	1	-0.00104333	0.000111808
2	0	0	0	0	87.5662	-0.981324	-0.981733	-0.122672	1	-0.00113506	0.000120431
2	0	0	1	0	88.3264	-1.01934	-1.01977	-0.126251	1	-0.00122966	0.000128747
2	0	0	1	0	89.0868	-1.05736	-1.05778	-0.129277	1	-0.00132673	0.000136746
2	0	0	0	0	89.8471	-1.09537	-1.09585	-0.131993	1	-0.00142617	0.000144644
2	0	0	0	0	90.6074	-1.13339	-1.13381	-0.134072	1	-0.00152743	0.000152013
2	0	0	0	0	91.3678	-1.1714	-1.17183	-0.136946	1	-0.00163061	0.000160476
2	0	0	1	0	92.128	-1.20942	-1.20983	-0.138465	1	-0.00173526	0.000167518
2	0	0	1	0	92.8884	-1.24744	-1.24787	-0.140423	1	-0.00184144	0.00017523
2	0	0	0	0	93.6487	-1.28545	-1.28591	-0.142281	1	-0.00194902	0.000182961
2	0	0	0	0	94.409	-1.32347	-1.3239	-0.143641	1	-0.00205793	0.000190166
2	0	0	0	0	95.1694	-1.36148	-1.36192	-0.145981	1	-0.00216812	0.000198815
2	0	0	1	0	95.9296	-1.3995	-1.3999	-0.147654	1	-0.00227974	0.000206701
2	0	0	1	0	96.69	-1.43752	-1.4379	-0.150294	1	-0.00239305	0.000216107
2	0	0	0	0	97.4502	-1.47553	-1.476	-0.152472	1	-0.00250791	0.000225048
2	0	0	0	0	98.2106	-1.51355	-1.51393	-0.155495	1	-0.00262514	0.000235407
2	0	0	0	0	98.971	-1.55156	-1.55196	-0.159298	1	-0.00274504	0.000247225
2	0	0	1	0	99.7312	-1.58958	-1.58996	-0.163968	1	-0.00286803	0.000260703
2	0	0	1	0	100.492	-1.6276	-1.62799	-0.169832	1	-0.00299489	0.000276485
2	0	0	0	0	101.252	-1.66561	-1.66605	-0.177236	1	-0.00312655	0.000295284
2	0	0	0	0	102.012	-1.70363	-1.70401	-0.186112	1	-0.00326461	0.000317137
2	0	0	0	0	102.773	-1.74164	-1.74202	-0.196888	1	-0.0034101	0.000342982
2	0	0	1	0	103.533	-1.77966	-1.78005	-0.209365	1	-0.00356458	0.000372681
2	0	0	1	0	104.293	-1.81768	-1.81802	-0.224685	1	-0.00372968	0.000408481
2	0	0	0	0	105.053	-1.85569	-1.85607	-0.240733	1	-0.00390664	0.000446816
2	0	0	0	0	105.814	-1.89371	-1.89404	-0.2594	1	-0.00409667	0.000491313
2	0	0	0	0	106.574	-1.93172	-1.93211	-0.278212	1	-0.00430107	0.000537535
2	0	0	1	0	107.334	-1.96974	-1.97009	-0.297866	1	-0.00451994	0.000586823
2	1	0	0	1	108.071	-1.99345	-1.99384	-0.304657	1	-0.00474627	0.000607436
2	1	0	1	1	108.832	-1.95543	-1.95581	-0.271242	1	-0.00496419	0.000530497
2	1	0	1	1	109.592	-1.91742	-1.91775	-0.249895	1	-0.00516185	0.000479237
2	1	0	1	1	110.352	-1.8794	-1.87976	-0.231779	1	-0.00534466	0.000435689
2	1	0	0	1	111.113	-1.84139	-1.84178	-0.217592	1	-0.00551535	0.000400755
2	1	0	0	1	111.873	-1.80337	-1.80375	-0.205488	1	-0.00567607	0.000370649
2	1	0	1	1	112.633	-1.76535	-1.76574	-0.194973	1	-0.00582821	0.000344271
2	1	0	1	1	113.394	-1.72734	-1.72779	-0.184374	1	-0.00597231	0.00031856
2	1	0	1	1	114.154	-1.68932	-1.68977	-0.174432	1	-0.00610886	0.000294751
2	1	0	0	1	114.914	-1.65131	-1.6517	-0.166198	1	-0.00623853	0.000274509
2	1	0	0	1	115.675	-1.61329	-1.61365	-0.157579	1	-0.00636172	0.000254277
2	1	0	1	1	116.435	-1.57527	-1.57565	-0.150413	1	-0.00647865	0.000236997
2	1	0	1	1	117.195	-1.53726	-1.53768	-0.142832	1	-0.00658989	0.000219631
2	1	0	1	1	117.956	-1.49924	-1.49965	-0.136565	1	-0.00669616	0.000204799
2	1	0	0	1	118.716	-1.46123	-1.46165	-0.131886	1	-0.00679813	0.000192772
2	1	0	0	1	119.476	-1.42321	-1.42365	-0.127395	1	-0.00689661	0.000181366
2	1	0	1	1	120.236	-1.38519	-1.38561	-0.123951	1	-0.00699196	0.000171748
2	1	0	1	1	120.997	-1.34718	-1.34763	-0.120238	1	-0.00708472	0.000162037
2	1	0	0	1	121.757	-1.30916	-1.3096	-0.117951	1	-0.00717527	0.000154469
2	1	0	0	1	122.517	-1.27115	-1.27157	-0.114775	1	-0.00726368	0.000145945
2	1	0	0	1	123.278	-1.23313	-1.23355	-0.112198	1	-0.00735009	0.000138402
2	1	0	1	1	124.038	-1.19511	-1.19553	-0.11044	1	-0.00743463	0.000132034
2	1	0	1	1	124.798	-1.1571	-1.15757	-0.108096	1	-0.00751763	0.000125129
2	1	0	0	1	125.559	-1.11908	-1.11951	-0.105963	1	-0.00759888	0.000118626
2	1	0	0	1	126.319	-1.08107	-1.08148	-0.102322	1	-0.00767794	0.000110659
2	1	0	0	1	127.079	-1.04305	-1.04348	-0.0985786	1	-0.00775439	0.000102865
2	1	0	1	1	127.84	-1.00503	-1.00548	-0.0938268	1	-0.00782749	9.43413e-05
2	1	0	1	1	128.574	-0.968318	-0.968794	-0.0878487	2	-0.0078942	8.51073e-05
2	1	0	0	1	129.334	-0.930303	-0.930734	-0.0804403	2	-0.00795816	7.48685e-05
2	1	0	0	1	130.095	-0.892287	-0.892747	-0.0719725	2	-0.00801612	6.42532e-05
2	1	0	0	1	130.855	-0.854271	-0.854768	-0.0625498	2	-0.00806725	5.34655e-05
2	1	0	1	1	131.615	-0.816255	-0.816743	-0.0526765	2	-0.00811105	4.30232e-05
2	1	0	1	1	132.406	-0.776738	-0.777151	-0.0426575	2	-0.00814866	3.31513e-05
2	1	0	0	1	133.166	-0.738722	-0.739171	-0.0336509	2	-0.00817755	2.48737e-05
2	1	0	0	1	133.926	-0.700706	-0.701122	-0.0258318	2	-0.00820004	1.81112e-05
2	1	0	0	1	134.687	-0.66269	-0.66315	-0.0193603	2	-0.00821706	1.28388e-05
2	1	0	1	1	135.447	-0.624674	-0.625114	-0.0142297	2	-0.00822971	8.8952e-06
2	1	0	1	1	136.207	-0.586658	-0.587094	-0.0101064	2	-0.00823889	5.9334e-06
2	1	0	0	1	136.967	-0.548642	-0.549076	-0.00691106	2	-0.00824525	3.7947e-06
2	1	0	0	1	137.728	-0.510626	-0.511072	-0.00471018	2	-0.00824955	2.40724e-06
2	1	0	0	1	138.52	-0.47101	-0.471417	-0.0038833	2	-0.0082529	1.83065e-06
2	1	0	1	1	139.28	-0.432994	-0.433425	-0.00349661	2	-0.00825572	1.51552e-06
2	1	0	1	1	140.041	-0.394978	-0.395418	-0.00191363	2	-0.00825788	7.56684e-07
2	1	0	0	1	140.801	-0.356964	-0.357339	0.000819545	2	-0.0082583	-2.92855e-07
2	1	0	0	1	141.561	-0.318946	-0.319336	0.00350606	2	-0.0082566	-1.11961e-06
2	1	0	0	1	142.322	-0.28093	-0.281325	0.00555096	2	-0.0082531	-1.56162e-06
2	1	0	1	1	143.082	-0.242914	-0.243331	0.00689055	2	-0.00824831	-1.67669e-06
2	1	0	1	1	143.842	-0.204898	-0.205312	0.00762513	2	-0.00824273	-1.56553e-06
2	1	0	0	1	144.603	-0.16688	-0.1673	0.00798937	2	-0.00823674	-1.33662e-06
2	1	0	0	1	145.363	-0.128866	-0.129307	0.00805026	2	-0.00823063	-1.04095e-06
2	1	0	0	1	146.123	-0.0908498	-0.0912792	0.00805987	2	-0.00822449	-7.35699e-07
2	1	0	1	1	146.884	-0.0528338	-0.0532919	0.00805968	2	-0.00821835	-4.29516e-07
2	1	0	1	1	147.644	-0.0148179	-0.0152463	0.00804476	2	-0.00821221	-1.22653e-07
2	1	0	0	1	148.404	0.0231981	0.0228353	0.00799762	2	-0.00820611	1.82628e-07
2	1	0	0	1	149.165	0.0612141	0.0608597	0.00797949	2	-0.00820003	4.85629e-07
2	1	0	0	1	149.925	0.09923	0.0988405	0.00794072	2	-0.00819395	7.84865e-07
2	1	0	1	1	150.685	0.137246	0.136889	0.0080513	2	-0.00818786	1.10214e-06
2	1	0	1	1	151.446	0.175262	0.174921	0.00813268	2	-0.00818171	1.42258e-06
2	1	0	0	1	152.206	0.213278	0.21292	0.00820069	2	-0.00817548	1.74609e-06
2	1	0	0	1	152.966	0.251294	0.250971	0.0083309	2	-0.00816917	2.09081e-06
2	1	0	0	1	153.727	0.28931	0.289015	0.00851748	2	-0.00816275	2.46168e-06
2	1	0	1	1	154.487	0.327326	0.327022	0.00868142	2	-0.00815619	2.83901e-06
2	1	0	1	1	155.247	0.365342	0.36503	0.00883307	2	-0.00814949	3.22434e-06
2	1	0	0	1	156.007	0.403358	0.403044	0.00903888	2	-0.00814265	3.64307e-06
2	1	0	0	1	156.768	0.441374	0.441036	0.00927732	2	-0.00813569	4.09164e-06
2	1	0	0	1	157.528	0.47939	0.479059	0.00942205	2	-0.0081286	4.51371e-06
2	1	0	1	1	158.288	0.517406	0.517074	0.00964454	2	-0.00812135	4.98694e-06
2	1	0	1	1	159.049	0.555422	0.555101	0.00998214	2	-0.00811387	5.54109e-06
2	1	0	0	1	159.841	0.595038	0.594726	0.0103964	2	-0.00810576	6.18304e-06
2	1	0	0	1	160.601	0.633054	0.632713	0.0109464	2	-0.00809762	6.92596e-06
2	1	0	0	1	161.362	0.67107	0.670756	0.0115615	2	-0.00808905	7.75496e-06
2	1	0	1	1	162.122	0.709086	0.708732	0.0122897	2	-0.00807995	8.71011e-06
2	1	0	1	1	162.882	0.747102	0.746769	0.013111	2	-0.00807024	9.7909e-06
2	1	0	0	1	163.643	0.785122	0.784755	0.0140897	2	-0.00805988	1.1057e-05
2	1	0	0	1	164.403	0.823134	0.822781	0.0150537	2	-0.00804878	1.23859e-05
2	1	0	0	1	165.163	0.86115	0.860848	0.0161388	2	-0.00803688	1.3893e-05
2	1	0	1	1	165.924	0.899166	0.898884	0.0173675	2	-0.00802412	1.56113e-05
2	1	0	1	1	166.684	0.937182	0.936888	0.018593	2	-0.00801043	1.74196e-05
2	1	0	0	1	167.444	0.975198	0.974902	0.0201106	2	-0.00799569	1.96059e-05
2	1	0	0	1	168.205	1.01321	1.01292	0.0217262	2	-0.00797974	2.20069e-05
2	1	0	0	1	168.965	1.05123	1.05096	0.0234826	2	-0.00796255	2.46793e-05
2	1	0	1	1	169.725	1.08925	1.08891	0.0255041	2	-0.00794392	2.77717e-05
2	1	0	1	1	170.486	1.12726	1.127	0.0277071	2	-0.00792367	3.12258e-05
2	1	0	0	1	171.246	1.16528	1.16504	0.0301418	2	-0.00790168	3.51164e-05
2	0	0	0	1	171.953	1.19939	1.19915	0.0321831	2	-0.00787942	3.85924e-05
2	0	0	0	1	172.713	1.16138	1.16109	0.021415	2	-0.00785967	2.48647e-05
2	0	0	1	1	173.473	1.12336	1.12303	0.015918	2	-0.0078457	1.78764e-05
2	0	0	1	1	174.234	1.08534	1.08505	0.0123853	2	-0.00783506	1.34386e-05
2	0	0	0	1	174.994	1.04733	1.04704	0.00992309	2	-0.00782666	1.03899e-05
2	0	0	0	1	175.754	1.00931	1.00906	0.00813126	2	-0.00781986	8.20491e-06
2	0	0	0	1	176.515	0.971296	0.971033	0.00673031	2	-0.00781426	6.53535e-06
2	0	0	1	1	177.275	0.93328	0.933001	0.00556322	2	-0.00780963	5.19049e-06
2	0	0	1	1	178.067	0.893664	0.893338	0.00457691	2	-0.00780564	4.08873e-06
2	0	0	1	1	178.828	0.855648	0.855329	0.00379067	2	-0.00780246	3.24227e-06
2	0	0	0	1	179.588	0.817632	0.817305	0.00317055	2	-0.00779983	2.5913e-06
2	0	0	0	1	180.348	0.779616	0.779269	0.00258937	2	-0.00779766	2.01781e-06
2	0	0	1	1	181.108	0.7416	0.741266	0.00208751	2	-0.0077959	1.5474e-06
2	0	0	1	1	181.869	0.703584	0.703224	0.00158653	2	-0.00779451	1.11568e-06
2	0	0	1	1	182.629	0.665568	0.665256	0.00119587	2	-0.00779347	7.95563e-07
2	0	0	0	1	183.389	0.627552	0.627258	0.000805422	2	-0.00779274	5.05207e-07
2	0	0	0	1	184.15	0.589536	0.589191	0.00039019	2	-0.00779231	2.29897e-07
2	0	0	1	1	184.91	0.55152	0.551177	1.82164e-05	2	-0.00779216	1.00404e-08
2	0	0	1	1	185.67	0.513504	0.513143	-0.000348891	2	-0.0077923	-1.79031e-07
2	0	0	1	1	186.431	0.475488	0.475089	-0.000670784	2	-0.00779271	-3.18682e-07
2	0	0	0	1	187.191	0.437472	0.437046	-0.00106143	2	-0.00779338	-4.63893e-07
2	0	0	0	1	187.951	0.399456	0.399083	-0.00137534	2	-0.00779432	-5.48876e-07
2	0	0	1	1	188.712	0.36144	0.361014	-0.00175635	2	-0.00779552	-6.34067e-07
2	0	0	1	1	189.472	0.323424	0.323035	-0.00208638	2	-0.00779699	-6.73975e-07
2	0	0	0	1	190.232	0.285411	0.285004	-0.00241545	2	-0.00779872	-6.88414e-07
2	0	0	0	1	190.993	0.247392	0.24703	-0.00275245	2	-0.00780072	-6.79939e-07
2	0	0	0	1	191.753	0.209376	0.208966	-0.00317809	2	-0.007803	-6.64114e-07
2	0	0	1	1	192.513	0.17136	0.171008	-0.00349947	2	-0.00780555	-5.98437e-07
2	0	0	1	1	193.274	0.133344	0.133008	-0.00386055	2	-0.00780836	-5.13483e-07
2	0	0	0	1	194.034	0.0953284	0.0949588	-0.00419754	2	-0.00781144	-3.98593e-07
2	0	0	0	1	194.794	0.0573124	0.0569432	-0.00453059	2	-0.00781477	-2.57986e-07
2	0	0	0	1	195.555	0.0192965	0.0188912	-0.00482277	2	-0.00781835	-9.11082e-08
2	0	0	1	1	196.315	-0.0187195	-0.0191289	-0.00519317	2	-0.00782218	9.93395e-08
2	0	0	1	1	197.075	-0.0567355	-0.0571607	-0.00558175	2	-0.00782629	3.19057e-07
2	0	0	0	1	197.835	-0.0947558	-0.095227	-0.00604695	2	-0.00783072	5.75832e-07
2	0	0	0	1	198.596	-0.132767	-0.133262	-0.00655024	2	-0.00783547	8.72901e-07
2	0	0	0	1	199.356	-0.170783	-0.17123	-0.00691649	2	-0.00784055	1.18431e-06
2	0	0	1	1	200.116	-0.208799	-0.209223	-0.00761478	2	-0.00784606	1.59319e-06
2	0	0	1	1	200.877	-0.246815	-0.24729	-0.00867264	2	-0.00785223	2.14466e-06
2	0	0	1	1	201.669	-0.286432	-0.286834	-0.0104308	2	-0.00785981	2.99193e-06
2	0	0	0	1	202.429	-0.324448	-0.324891	-0.0130656	2	-0.00786872	4.2449e-06
2	0	0	0	1	203.19	-0.362464	-0.36291	-0.0164334	2	-0.0078799	5.96383e-06
2	0	0	1	1	203.95	-0.40048	-0.400952	-0.0204809	2	-0.00789389	8.21185e-06
2	0	0	1	1	204.71	-0.438496	-0.438928	-0.0250973	2	-0.00791123	1.10159e-05
2	0	0	0	1	205.471	-0.476507	-0.47695	-0.0305988	2	-0.00793237	1.45941e-05
2	0	0	0	1	206.231	-0.514528	-0.514946	-0.0369495	2	-0.00795802	1.9027e-05
2	0	0	0	1	206.991	-0.552544	-0.552968	-0.0437785	2	-0.00798873	2.42081e-05
2	0	0	1	1	207.752	-0.59056	-0.590955	-0.0509223	2	-0.00802473	3.00928e-05
2	0	0	1	1	208.512	-0.628576	-0.629034	-0.058072	2	-0.0080662	3.65292e-05
2	0	0	0	1	209.272	-0.666591	-0.667059	-0.0658117	2	-0.00811328	4.39003e-05
2	0	0	0	1	210.033	-0.704608	-0.705037	-0.073905	2	-0.00816635	5.21057e-05
2	0	0	0	1	210.793	-0.742624	-0.743048	-0.0824003	2	-0.00822579	6.12274e-05
2	0	0	1	1	211.553	-0.78064	-0.781053	-0.0906799	2	-0.00829165	7.08258e-05
2	0	0	1	1	212.314	-0.818656	-0.819056	-0.098395	2	-0.00836362	8.0591e-05
2	0	0	1	1	213.106	-0.858272	-0.858661	-0.105702	2	-0.00844443	9.0762e-05
2	0	0	0	1	213.866	-0.896288	-0.896715	-0.111464	2	-0.00852704	9.99513e-05
2	0	0	0	1	214.627	-0.934304	-0.934714	-0.116513	2	-0.00861378	0.000108906
2	0	0	1	1	215.387	-0.97232	-0.972724	-0.120733	2	-0.00870407	0.00011744
2	0	0	1	1	216.147	-1.01034	-1.01076	-0.124449	2	-0.00879735	0.000125789
2	0	0	1	1	216.908	-1.04835	-1.04871	-0.12755	2	-0.00889308	0.000133762
2	0	0	0	1	217.668	-1.08637	-1.08679	-0.13031	2	-0.00899124	0.000141619
2	0	0	0	1	218.428	-1.12438	-1.12478	-0.132572	2	-0.00909134	0.000149114
2	0	0	1	1	219.188	-1.1624	-1.16281	-0.135019	2	-0.00919321	0.000157001
2	0	0	1	1	219.949	-1.20042	-1.20079	-0.137218	2	-0.00929674	0.00016477
2	0	0	1	1	220.709	-1.23843	-1.23884	-0.138934	2	-0.00940187	0.000172116
2	0	0	0	1	221.469	-1.27645	-1.27682	-0.14109	2	-0.00950834	0.000180146
2	0	0	0	1	222.23	-1.31446	-1.31487	-0.142874	2	-0.0096163	0.00018786
2	0	0	1	1	222.99	-1.35248	-1.35289	-0.143973	2	-0.00972536	0.000194779
2	0	0	1	1	223.75	-1.3905	-1.3909	-0.146366	2	-0.0098358	0.000203579
2	0	0	0	1	224.511	-1.42851	-1.42889	-0.148104	2	-0.00994768	0.000211624
2	0	0	0	1	225.271	-1.46653	-1.46692	-0.150437	2	-0.0100614	0.000220679
2	0	0	0	1	226.031	-1.50454	-1.50491	-0.153822	2	-0.0101772	0.000231489
2	0	0	1	1	226.792	-1.54256	-1.54295	-0.156978	2	-0.0102954	0.00024221
2	0	0	1	1	227.552	-1.58058	-1.58096	-0.161813	2	-0.0104166	0.000255819
2	0	0	0	1	228.312	-1.61859	-1.61896	-0.166731	2	-0.0105415	0.000269932
2	0	0	0	1	229.073	-1.65661	-1.65706	-0.173406	2	-0.010671	0.000287345
2	0	0	0	1	229.833	-1.69462	-1.69505	-0.181903	2	-0.0108061	0.000308335
2	0	0	1	1	230.593	-1.73264	-1.73304	-0.192217	2	-0.0109483	0.000333118
2	0	0	1	1	231.354	-1.77066	-1.77105	-0.204218	2	-0.011099	0.000361681
2	0	0	0	1	232.114	-1.80867	-1.80908	-0.218367	2	-0.0112595	0.000395043
2	0	0	0	1	232.874	-1.84669	-1.84708	-0.234523	2	-0.0114315	0.000433183
2	0	0	0	1	233.635	-1.8847	-1.88509	-0.250831	2	-0.011616	0.000472839
2	0	0	1	1	234.395	-1.92272	-1.92311	-0.269152	2	-0.0118139	0.00051761
2	0	0	1	1	235.155	-1.96074	-1.96111	-0.289031	2	-0.012026	0.000566822
2	0	0	0	1	235.915	-1.99875	-1.99911	-0.310118	2	-0.0122534	0.000619961
2	1	0	1	0	236.652	-1.96444	-1.9648	-0.274565	2	-0.0124671	0.000539467
2	1	0	1	0	237.413	-1.92642	-1.92682	-0.251559	2	-0.0126665	0.000484709
2	1	0	0	0	238.173	-1.88841	-1.88874	-0.232841	2	-0.0128503	0.000439776
2	1	0	0	0	238.933	-1.85039	-1.8508	-0.217924	2	-0.0130217	0.000403334
2	1	0	1	0	239.694	-1.81237	-1.81276	-0.205866	2	-0.0131824	0.000373185
2	1	0	1	0	240.454	-1.77436	-1.77475	-0.194681	2	-0.0133344	0.000345511
2	1	0	1	0	241.214	-1.73634	-1.73673	-0.184583	2	-0.0134783	0.000320572
2	1	0	0	0	241.975	-1.69833	-1.69876	-0.174951	2	-0.0136148	0.0002972
2	1	0	0	0	242.735	-1.66031	-1.66072	-0.166352	2	-0.0137445	0.000276264
2	1	0	1	0	243.495	-1.62229	-1.6227	-0.158426	2	-0.0138678	0.000257078
2	1	0	1	0	244.256	-1.58428	-1.58466	-0.14996	2	-0.013985	0.000237635
2	1	0	1	0	245.016	-1.54626	-1.54662	-0.143648	2	-0.0140967	0.000222169
2	1	0	0	0	245.776	-1.50825	-1.50866	-0.137251	2	-0.0142033	0.000207064
2	1	0	0	0	246.537	-1.47023	-1.47062	-0.132531	2	-0.0143057	0.000194904
2	1	0	1	0	247.297	-1.43221	-1.43259	-0.127906	2	-0.0144045	0.000183237
2	1	0	1	0	248.057	-1.3942	-1.39462	-0.124131	2	-0.0145002	0.000173116
2	1	0	1	0	248.818	-1.35618	-1.3566	-0.121293	2	-0.0145934	0.000164546
2	1	0	0	0	249.578	-1.31817	-1.31862	-0.118237	2	-0.0146844	0.000155909
2	1	0	0	0	250.338	-1.28015	-1.28057	-0.115517	2	-0.0147732	0.000147927
2	1	0	1	0	251.098	-1.24213	-1.24253	-0.113068	2	-0.0148599	0.000140491
2	1	0	1	0	251.859	-1.20412	-1.20455	-0.110642	2	-0.0149451	0.000133273
2	1	0	1	0	252.619	-1.1661	-1.16654	-0.10855	2	-0.0150285	0.000126627
2	1	0	0	0	253.379	-1.12809	-1.12852	-0.10608	2	-0.01511	0.000119714
2	1	0	0	0	254.14	-1.09007	-1.09047	-0.103358	2	-0.0151897	0.000112709
2	1	0	1	0	254.9	-1.05205	-1.0525	-0.0995523	2	-0.0152668	0.000104779
2	1	0	1	0	255.66	-1.01404	-1.01448	-0.0947006	2	-0.0153406	9.60716e-05
2	1	0	0	0	256.395	-0.977322	-0.977768	-0.0890914	3	-0.0154082	8.71108e-05
2	1	0	0	0	257.155	-0.939306	-0.93975	-0.0819613	3	-0.0154733	7.70232e-05
2	1	0	0	0	257.915	-0.90129	-0.901749	-0.0736798	3	-0.0155325	6.64408e-05
2	1	0	1	0	258.676	-0.863274	-0.863729	-0.0643171	3	-0.015585	5.55525e-05
2	1	0	1	0	259.436	-0.825258	-0.825716	-0.0548673	3	-0.0156303	4.53048e-05
2	1	0	0	0	260.228	-0.785642	-0.786117	-0.0445059	3	-0.0156696	3.49868e-05
2	1	0	0	0	260.989	-0.747626	-0.748058	-0.0352092	3	-0.0156998	2.63385e-05
2	1	0	0	0	261.749	-0.70961	-0.710068	-0.0270848	3	-0.0157234	1.92321e-05
2	1	0	1	0	262.509	-0.671594	-0.672058	-0.0203718	3	-0.0157413	1.3691e-05
2	1	0	1	0	263.27	-0.633578	-0.634006	-0.0151183	3	-0.0157547	9.5851e-06
2	1	0	0	0	264.03	-0.595558	-0.595991	-0.0109023	3	-0.0157645	6.49768e-06
2	1	0	0	0	264.79	-0.557546	-0.558004	-0.00765608	3	-0.0157715	4.27212e-06
2	1	0	0	0	265.551	-0.51953	-0.519983	-0.00526472	3	-0.0157763	2.73756e-06
2	1	0	1	0	266.343	-0.479913	-0.480335	-0.00413286	3	-0.0157799	1.98516e-06
2	1	0	1	0	267.103	-0.441897	-0.442335	-0.00375963	3	-0.0157829	1.66302e-06
2	1	0	1	0	267.864	-0.403881	-0.404306	-0.0024438	3	-0.0157854	9.88045e-07
2	1	0	0	0	268.624	-0.365865	-0.366279	3.62705e-05	3	-0.0157863	-1.32851e-08
2	1	0	0	0	269.384	-0.327849	-0.328242	0.0027116	3	-0.0157852	-8.9006e-07
2	1	0	1	0	270.144	-0.289833	-0.2902	0.00493258	3	-0.0157822	-1.43144e-06
2	1	0	1	0	270.905	-0.251817	-0.252223	0.00628339	3	-0.0157779	-1.58481e-06
2	1	0	1	0	271.665	-0.213801	-0.214172	0.00716228	3	-0.0157728	-1.53396e-06
2	1	0	0	0	272.425	-0.175785	-0.176191	0.0075473	3	-0.0157672	-1.32977e-06
2	1	0	0	0	273.186	-0.13777	-0.13817	0.00771951	3	-0.0157613	-1.0666e-06
2	1	0	1	0	273.946	-0.0997535	-0.100162	0.00767879	3	-0.0157555	-7.69126e-07
2	1	0	1	0	274.706	-0.0617376	-0.0620934	0.00774287	3	-0.0157496	-4.80781e-07
2	1	0	0	0	275.467	-0.0237227	-0.0241028	0.00773251	3	-0.0157437	-1.86375e-07
2	1	0	0	0	276.227	0.0142944	0.0139447	0.00772547	3	-0.0157378	1.0773e-07
2	1	0	0	0	276.987	0.0523103	0.0519542	0.00772	3	-0.0157319	4.01087e-07
2	1	0	1	0	277.748	0.0903263	0.0900136	0.00768977	3	-0.015726	6.92184e-07
2	1	0	1	0	278.508	0.128342	0.127977	0.00775574	3	-0.0157202	9.92561e-07
2	1	0	0	0	279.268	0.166361	0.166034	0.00782615	3	-0.0157142	1.2994e-06
2	1	0	0	0	280.029	0.204374	0.203993	0.00794849	3	-0.0157082	1.62144e-06
2	1	0	0	0	280.789	0.24239	0.242008	0.00809306	3	-0.0157021	1.95859e-06
2	1	0	1	0	281.549	0.280406	0.280053	0.00827629	3	-0.0156959	2.3178e-06
2	1	0	1	0	282.31	0.318422	0.318089	0.00847951	3	-0.0156895	2.69724e-06
2	1	0	0	0	283.07	0.356438	0.356051	0.00866198	3	-0.015683	3.08411e-06
2	1	0	0	0	283.83	0.394454	0.394107	0.00883213	3	-0.0156763	3.4808e-06
2	1	0	0	0	284.591	0.43247	0.432159	0.00903035	3	-0.0156695	3.90254e-06
2	1	0	1	0	285.351	0.470486	0.470148	0.00918192	3	-0.0156626	4.31686e-06
2	1	0	1	0	286.111	0.508502	0.508157	0.00935789	3	-0.0156555	4.75528e-06
2	1	0	0	0	286.871	0.546518	0.546167	0.00965386	3	-0.0156483	5.27262e-06
2	1	0	0	0	287.632	0.584534	0.584181	0.0100336	3	-0.0156408	5.86144e-06
2	1	0	0	0	288.424	0.62415	0.623782	0.0105171	3	-0.0156326	6.56037e-06
2	1	0	1	0	289.184	0.662166	0.66187	0.0110463	3	-0.0156244	7.3112e-06
2	1	0	1	0	289.945	0.700182	0.699842	0.0117522	3	-0.0156157	8.22471e-06
2	1	0	0	0	290.705	0.738195	0.737916	0.0125546	3	-0.0156064	9.26427e-06
2	1	0	0	0	291.465	0.776214	0.775876	0.0133758	3	-0.0155966	1.03779e-05
2	1	0	0	0	292.226	0.81423	0.813905	0.0143099	3	-0.015586	1.16469e-05
2	1	0	1	0	292.986	0.852246	0.851936	0.0153977	3	-0.0155746	1.31178e-05
2	1	0	1	0	293.746	0.890262	0.889906	0.0165683	3	-0.0155625	1.47442e-05
2	1	0	0	0	294.507	0.928278	0.927968	0.0178651	3	-0.0155494	1.65782e-05
2	1	0	0	0	295.267	0.966294	0.965958	0.0191876	3	-0.0155353	1.85344e-05
2	1	0	0	0	296.027	1.00431	1.00406	0.0207574	3	-0.0155201	2.08417e-05
2	1	0	1	0	296.788	1.04233	1.042	0.0224939	3	-0.0155036	2.34388e-05
2	1	0	1	0	297.548	1.08034	1.08007	0.0243722	3	-0.0154858	2.63238e-05
2	1	0	0	0	298.308	1.11836	1.11808	0.0263709	3	-0.0154665	2.94848e-05
2	1	0	0	0	299.069	1.15637	1.15612	0.0287488	3	-0.0154455	3.32371e-05
2	1	0	0	0	299.829	1.19439	1.19414	0.0315231	3	-0.0154226	3.7643e-05
2	0	0	1	0	300.534	1.17038	1.17009	0.022576	3	-0.0154033	2.6416e-05
2	0	0	1	0	301.294	1.13236	1.13205	0.0164469	3	-0.0153888	1.86188e-05
2	0	0	1	0	302.054	1.09435	1.09401	0.0126147	3	-0.0153779	1.38007e-05
2	0	0	0	0	302.815	1.05633	1.05606	0.0100922	3	-0.0153693	1.06579e-05
2	0	0	0	0	303.575	1.01832	1.01804	0.00828838	3	-0.0153624	8.43794e-06
2	0	0	1	0	304.335	0.9803	0.979986	0.00684963	3	-0.0153567	6.71255e-06
2	0	0	1	0	305.096	0.942284	0.941962	0.00567629	3	-0.015352	5.34685e-06
2	0	0	1	0	305.886	0.902767	0.902442	0.00467185	3	-0.0153479	4.21607e-06
2	0	0	0	0	306.646	0.864751	0.864398	0.0039011	3	-0.0153447	3.37211e-06
2	0	0	0	0	307.407	0.826735	0.826392	0.00325991	3	-0.015342	2.69396e-06
2	0	0	1	0	308.167	0.788719	0.788347	0.00267572	3	-0.0153398	2.1094e-06
2	0	0	1	0	308.927	0.750704	0.750361	0.00213359	3	-0.0153379	1.60096e-06
2	0	0	1	0	309.688	0.712687	0.712338	0.00169053	3	-0.0153365	1.20423e-06
2	0	0	0	0	310.448	0.674672	0.674318	0.00127571	3	-0.0153354	8.60234e-07
2	0	0	0	0	311.208	0.636656	0.636301	0.000857377	3	-0.0153346	5.4555e-07
2	0	0	1	0	311.968	0.59864	0.598298	0.000460531	3	-0.0153341	2.75534e-07
2	0	0	1	0	312.729	0.560624	0.560237	6.33138e-05	3	-0.0153339	3.54707e-08
2	0	0	1	0	313.489	0.522608	0.522252	-0.000240536	3	-0.015334	-1.2562e-07
2	0	0	0	0	314.249	0.484592	0.484217	-0.000623551	3	-0.0153343	-3.01934e-07
2	0	0	0	0	315.01	0.446576	0.446258	-0.000914646	3	-0.0153349	-4.08168e-07
2	0	0	1	0	315.77	0.40856	0.408163	-0.00125301	3	-0.0153357	-5.11432e-07
2	0	0	1	0	316.53	0.370544	0.37018	-0.00158553	3	-0.0153368	-5.8693e-07
2	0	0	1	0	317.291	0.332528	0.332158	-0.00191836	3	-0.0153382	-6.37198e-07
2	0	0	0	0	318.051	0.294512	0.294103	-0.00227193	3	-0.0153398	-6.6818e-07
2	0	0	0	0	318.811	0.256496	0.256143	-0.00259106	3	-0.0153417	-6.63684e-07
2	0	0	1	0	319.572	0.21848	0.21814	-0.00296183	3	-0.0153438	-6.46094e-07
2	0	0	1	0	320.332	0.180464	0.18005	-0.0032501	3	-0.0153462	-5.85181e-07
2	0	0	1	0	321.092	0.142448	0.142043	-0.0036129	3	-0.0153488	-5.13186e-07
2	0	0	0	0	321.853	0.104432	0.104066	-0.00393339	3	-0.0153517	-4.09332e-07
2	0	0	0	0	322.613	0.0664162	0.0660427	-0.00428166	3	-0.0153548	-2.82772e-07
2	0	0	1	0	323.373	0.0284003	0.0280343	-0.00456452	3	-0.0153582	-1.27963e-07
2	0	0	1	0	324.134	-0.00961568	-0.0100569	-0.00484346	3	-0.0153618	4.87103e-08
2	0	0	0	0	324.894	-0.0476305	-0.0480351	-0.00522474	3	-0.0153657	2.50971e-07
2	0	0	0	0	325.654	-0.0856476	-0.086129	-0.00562883	3	-0.0153698	4.84805e-07
2	0	0	0	0	326.415	-0.123664	-0.12409	-0.00605945	3	-0.0153743	7.51915e-07
2	0	0	1	0	327.175	-0.16168	-0.162105	-0.00647777	3	-0.015379	1.05008e-06
2	0	0	1	0	327.935	-0.199696	-0.200143	-0.00710987	3	-0.0153842	1.42299e-06
2	0	0	0	0	328.695	-0.237715	-0.238172	-0.0080432	3	-0.0153899	1.91566e-06
2	0	0	0	0	329.456	-0.275727	-0.276167	-0.00944255	3	-0.0153966	2.60772e-06
2	0	0	0	0	330.248	-0.315344	-0.315759	-0.0118386	3	-0.015405	3.73816e-06
2	0	0	1	0	331.008	-0.35336	-0.353761	-0.0148407	3	-0.0154152	5.25006e-06
2	0	0	1	0	331.769	-0.391376	-0.3918	-0.0185227	3	-0.0154278	7.25719e-06
2	0	0	1	0	332.529	-0.429392	-0.429808	-0.0228437	3	-0.0154436	9.81841e-06
2	0	0	0	0	333.289	-0.467408	-0.467837	-0.0277715	3	-0.0154628	1.29925e-05
2	0	0	0	0	334.05	-0.505424	-0.505849	-0.0337496	3	-0.0154862	1.70722e-05
2	0	0	1	0	334.81	-0.54344	-0.543866	-0.0404374	3	-0.0155144	2.19925e-05
2	0	0	1	0	335.57	-0.581456	-0.581931	-0.0476666	3	-0.0155479	2.77387e-05
2	0	0	1	0	336.331	-0.619472	-0.619969	-0.0548467	3	-0.0155869	3.40033e-05
2	0	0	0	0	337.091	-0.657488	-0.657909	-0.0624935	3	-0.0156315	4.1115e-05
2	0	0	0	0	337.851	-0.695504	-0.695955	-0.0707463	3	-0.0156821	4.92362e-05
2	0	0	1	0	338.612	-0.73352	-0.733979	-0.0792188	3	-0.0157391	5.81449e-05
2	0	0	1	0	339.372	-0.771536	-0.77197	-0.0877911	3	-0.0158026	6.77721e-05
2	0	0	0	0	340.132	-0.80955	-0.809984	-0.0956722	3	-0.0158725	7.74929e-05
2	0	0	0	0	340.893	-0.847568	-0.847961	-0.102991	3	-0.0159481	8.73328e-05
2	0	0	0	0	341.685	-0.887184	-0.887644	-0.109378	3	-0.0160324	9.70886e-05
2	0	0	1	0	342.445	-0.9252	-0.925604	-0.114558	3	-0.0161176	0.000106036
2	0	0	1	0	343.206	-0.963216	-0.963645	-0.119155	3	-0.0162065	0.000114823
2	0	0	1	0	343.966	-1.00123	-1.00169	-0.122906	3	-0.0162986	0.000123114
2	0	0	0	0	344.726	-1.03925	-1.03972	-0.126244	3	-0.0163934	0.000131259
2	0	0	0	0	345.487	-1.07726	-1.07768	-0.129139	3	-0.0164905	0.00013917
2	0	0	1	0	346.247	-1.11528	-1.11569	-0.131715	3	-0.0165896	0.000146953
2	0	0	1	0	347.007	-1.1533	-1.15373	-0.134129	3	-0.0166908	0.000154749
2	0	0	1	0	347.768	-1.19131	-1.19171	-0.135964	3	-0.0167935	0.000162029
2	0	0	0	0	348.528	-1.22933	-1.22974	-0.138221	3	-0.0168979	0.000169977
2	0	0	0	0	349.288	-1.26734	-1.26776	-0.140253	3	-0.0170038	0.000177808
2	0	0	1	0	350.048	-1.30536	-1.30575	-0.141759	3	-0.0171111	0.000185101
2	0	0	1	0	350.809	-1.34338	-1.34377	-0.14357	3	-0.0172195	0.000192925
2	0	0	1	0	351.569	-1.38139	-1.38184	-0.14492	3	-0.0173293	0.000200256
2	0	0	0	0	352.329	-1.41941	-1.4198	-0.147669	3	-0.0174406	0.000209661
2	0	0	0	0	353.09	-1.45742	-1.45782	-0.149587	3	-0.0175535	0.000218071
2	0	0	1	0	353.85	-1.49544	-1.49584	-0.152419	3	-0.0176684	0.000227993
2	0	0	1	0	354.61	-1.53346	-1.53383	-0.155764	3	-0.0177855	0.000238916
2	0	0	0	0	355.371	-1.57147	-1.57182	-0.159891	3	-0.0179054	0.000251319
2	0	0	0	0	356.131	-1.60949	-1.60985	-0.164738	3	-0.0180287	0.000265203
2	0	0	0	0	356.891	-1.6475	-1.6479	-0.170793	3	-0.0181561	0.00028145
2	0	0	1	0	357.652	-1.68552	-1.68594	-0.178826	3	-0.0182888	0.00030149
2	0	0	1	0	358.412	-1.72354	-1.72396	-0.188372	3	-0.0184282	0.000324745
2	0	0	0	0	359.172	-1.76155	-1.76194	-0.199397	3	-0.0185756	0.000351326
2	0	0	0	0	359.933	-1.79957	-1.79995	-0.213342	3	-0.0187325	0.000384007
2	0	0	0	0	360.693	-1.83758	-1.83797	-0.228402	3	-0.0189003	0.000419795
2	0	0	1	0	361.453	-1.8756	-1.87596	-0.245276	3	-0.01908	0.000460128
2	0	0	1	0	362.214	-1.91362	-1.914	-0.261781	3	-0.0192728	0.000501049
2	0	0	0	0	362.974	-1.95163	-1.95202	-0.281564	3	-0.0194794	0.000549618
2	0	0	0	0	363.734	-1.98965	-1.99001	-0.30211	3	-0.0197008	0.000601203
2	1	0	1	1	364.473	-1.97344	-1.97382	-0.277484	3	-0.0199179	0.000547704
2	1	0	0	1	365.233	-1.93542	-1.93582	-0.25268	3	-0.0201184	0.000489144
2	1	0	0	1	365.994	-1.89741	-1.8978	-0.232972	3	-0.0203028	0.000442134
2	1	0	1	1	366.754	-1.85939	-1.85977	-0.217993	3	-0.0204741	0.000405416
2	1	0	1	1	367.514	-1.82138	-1.82177	-0.205312	3	-0.0206351	0.000374033
2	1	0	1	1	368.275	-1.78336	-1.78374	-0.194752	3	-0.0207872	0.000347387
2	1	0	0	1	369.035	-1.74534	-1.74577	-0.184793	3	-0.0209315	0.000322608
2	1	0	0	1	369.795	-1.70733	-1.70776	-0.175711	3	-0.0210687	0.000300072
2	1	0	1	1	370.556	-1.66931	-1.66976	-0.167561	3	-0.0211991	0.000279787
2	1	0	1	1	371.316	-1.6313	-1.63166	-0.159473	3	-0.0213233	0.000260207
2	1	0	1	1	372.076	-1.59328	-1.59366	-0.15216	3	-0.0214415	0.000242492
2	1	0	0	1	372.837	-1.55527	-1.55569	-0.144509	3	-0.0215542	0.00022481
2	1	0	0	1	373.597	-1.51725	-1.5176	-0.138819	3	-0.0216618	0.000210672
2	1	0	1	1	374.357	-1.47923	-1.47965	-0.133139	3	-0.0217649	0.000196999
2	1	0	1	1	375.118	-1.44122	-1.44163	-0.128577	3	-0.0218642	0.000185361
2	1	0	1	1	375.878	-1.4032	-1.40361	-0.124731	3	-0.0219604	0.000175073
2	1	0	0	1	376.638	-1.36519	-1.36561	-0.121515	3	-0.0220541	0.000165943
2	1	0	0	1	377.399	-1.32717	-1.32758	-0.118981	3	-0.0221455	0.000157956
2	1	0	1	1	378.159	-1.28915	-1.28955	-0.115942	3	-0.0222348	0.000149513
2	1	0	1	1	378.919	-1.25114	-1.25153	-0.113621	3	-0.0223221	0.0001422
2	1	0	1	1	379.68	-1.21312	-1.2135	-0.111211	3	-0.0224074	0.000134955
2	1	0	0	1	380.44	-1.17511	-1.17553	-0.108841	3	-0.0224911	0.000127945
2	1	0	0	1	381.2	-1.13709	-1.13752	-0.106718	3	-0.0225731	0.000121394
2	1	0	1	1	381.96	-1.09907	-1.09952	-0.103856	3	-0.0226531	0.000114192
2	1	0	1	1	382.721	-1.06106	-1.06146	-0.100504	3	-0.022731	0.000106681
2	1	0	1	1	383.481	-1.02304	-1.02348	-0.0961074	3	-0.0228057	9.83638e-05
2	1	0	0	1	384.215	-0.986326	-0.986751	-0.0907564	4	-0.0228743	8.9554e-05
2	1	0	0	1	384.976	-0.94831	-0.948765	-0.0839289	4	-0.0229407	7.96288e-05
2	1	0	1	1	385.736	-0.910294	-0.910764	-0.0758442	4	-0.0230015	6.90761e-05
2	1	0	1	1	386.496	-0.872278	-0.872793	-0.0668589	4	-0.0230558	5.83539e-05
2	1	0	0	1	387.257	-0.834262	-0.834748	-0.0570436	4	-0.0231029	4.7617e-05
2	1	0	0	1	388.049	-0.794646	-0.795056	-0.0467974	4	-0.023144	3.72066e-05
2	1	0	0	1	388.809	-0.75663	-0.757095	-0.0373234	4	-0.0231759	2.82573e-05
2	1	0	1	1	389.57	-0.718614	-0.718998	-0.028864	4	-0.023201	2.07532e-05
2	1	0	1	1	390.33	-0.680598	-0.681009	-0.0219112	4	-0.0232201	1.49217e-05
2	1	0	0	1	391.09	-0.642584	-0.643035	-0.0161965	4	-0.0232345	1.04149e-05
2	1	0	0	1	391.851	-0.604566	-0.605028	-0.0118547	4	-0.0232451	7.17244e-06
2	1	0	0	1	392.611	-0.56655	-0.566996	-0.00831144	4	-0.0232526	4.71255e-06
2	1	0	1	1	393.371	-0.528534	-0.528966	-0.00567286	4	-0.0232578	3.00075e-06
2	1	0	1	1	394.164	-0.488917	-0.489333	-0.00423934	4	-0.0232616	2.07445e-06
2	1	0	1	1	394.924	-0.450901	-0.451289	-0.00376358	4	-0.0232646	1.69846e-06
2	1	0	0	1	395.684	-0.412885	-0.413312	-0.00279694	4	-0.0232672	1.15601e-06
2	1	0	0	1	396.445	-0.374869	-0.375255	-0.000593936	4	-0.0232685	2.22878e-07
2	1	0	1	1	397.205	-0.336853	-0.337214	0.00203547	4	-0.0232679	-6.8639e-07
2	1	0	1	1	397.965	-0.298837	-0.299264	0.00425116	4	-0.0232655	-1.27222e-06
2	1	0	1	1	398.726	-0.260821	-0.261208	0.00581465	4	-0.0232616	-1.51883e-06
2	1	0	0	1	399.486	-0.222805	-0.223162	0.00679119	4	-0.0232568	-1.51554e-06
2	1	0	0	1	400.246	-0.184789	-0.185184	0.0073125	4	-0.0232514	-1.35416e-06
2	1	0	1	1	401.006	-0.146773	-0.147215	0.00749696	4	-0.0232457	-1.10367e-06
2	1	0	1	1	401.767	-0.108757	-0.109211	0.00751152	4	-0.02324	-8.2034e-07
2	1	0	1	1	402.527	-0.0707414	-0.0711123	0.00750585	4	-0.0232342	-5.33759e-07
2	1	0	0	1	403.287	-0.0327254	-0.0331442	0.00746797	4	-0.0232285	-2.4752e-07
2	1	0	0	1	404.048	0.00529059	0.00494598	0.0074954	4	-0.0232228	3.70721e-08
2	1	0	1	1	404.808	0.0433065	0.0429343	0.0074351	4	-0.0232171	3.19221e-07
2	1	0	1	1	405.568	0.0813225	0.0809682	0.00741493	4	-0.0232115	6.00373e-07
2	1	0	0	1	406.329	0.119335	0.118992	0.00748571	4	-0.0232058	8.90738e-07
2	1	0	0	1	407.089	0.157354	0.157007	0.00756173	4	-0.0232001	1.18725e-06
2	1	0	0	1	407.849	0.19537	0.194996	0.00765888	4	-0.0231943	1.49345e-06
2	1	0	1	1	408.61	0.233386	0.233073	0.00779865	4	-0.0231884	1.81765e-06
2	1	0	1	1	409.37	0.271402	0.271035	0.0079476	4	-0.0231824	2.15407e-06
2	1	0	0	1	410.13	0.309418	0.309033	0.00814525	4	-0.0231763	2.51715e-06
2	1	0	0	1	410.891	0.347434	0.347128	0.00832751	4	-0.02317	2.89071e-06
2	1	0	0	1	411.651	0.38545	0.385104	0.00852697	4	-0.0231636	3.28377e-06
2	1	0	1	1	412.411	0.423466	0.423115	0.00874182	4	-0.023157	3.6988e-06
2	1	0	1	1	413.172	0.461482	0.46111	0.00890267	4	-0.0231503	4.10511e-06
2	1	0	0	1	413.932	0.499501	0.499145	0.00903902	4	-0.0231434	4.51178e-06
2	1	0	0	1	414.692	0.537514	0.537178	0.00933543	4	-0.0231364	5.01478e-06
2	1	0	0	1	415.453	0.57553	0.575181	0.00967423	4	-0.0231292	5.56443e-06
2	1	0	1	1	416.213	0.613546	0.613228	0.0100528	4	-0.0231217	6.16466e-06
2	1	0	1	1	417.005	0.653162	0.652805	0.0106148	4	-0.0231135	6.92936e-06
2	1	0	1	1	417.766	0.691179	0.690858	0.0112602	4	-0.0231051	7.7792e-06
2	1	0	0	1	418.526	0.729194	0.728852	0.0120525	4	-0.0230962	8.78451e-06
2	1	0	0	1	419.286	0.76721	0.76686	0.0128905	4	-0.0230868	9.88519e-06
2	1	0	1	1	420.046	0.805226	0.804887	0.0137518	4	-0.0230766	1.10687e-05
2	1	0	1	1	420.807	0.843242	0.842866	0.0147657	4	-0.0230657	1.24455e-05
2	1	0	1	1	421.567	0.881258	0.880955	0.0159417	4	-0.023054	1.40439e-05
2	1	0	0	1	422.327	0.919274	0.918975	0.0171311	4	-0.0230415	1.57431e-05
2	1	0	0	1	423.088	0.95729	0.956988	0.0184193	4	-0.0230279	1.76271e-05
2	1	0	1	1	423.848	0.995306	0.994997	0.0200173	4	-0.0230133	1.99171e-05
2	1	0	1	1	424.608	1.03332	1.03304	0.0217232	4	-0.0229974	2.24409e-05
2	1	0	0	1	425.369	1.07133	1.07105	0.0234582	4	-0.0229802	2.5125e-05
2	1	0	0	1	426.129	1.10935	1.1091	0.0254318	4	-0.0229615	2.82063e-05
2	1	0	0	1	426.889	1.14737	1.14704	0.0277124	4	-0.0229413	3.17873e-05
2	1	0	1	1	427.65	1.18539	1.18507	0.0302968	4	-0.0229193	3.59039e-05
2	0	0	1	1	428.354	1.17938	1.17906	0.0242948	4	-0.022899	2.86451e-05
2	0	0	1	1	429.115	1.14137	1.14106	0.0173436	4	-0.0228835	1.97901e-05
2	0	0	0	1	429.875	1.10335	1.1031	0.0132447	4	-0.022872	1.46102e-05
2	0	0	0	1	430.635	1.06534	1.065	0.0105089	4	-0.0228631	1.1192e-05
2	0	0	1	1	431.396	1.02732	1.02703	0.00860495	4	-0.0228559	8.8375e-06
2	0	0	1	1	432.156	0.989304	0.989052	0.00710642	4	-0.0228499	7.02862e-06
2	0	0	1	1	432.916	0.951288	0.950934	0.00589653	4	-0.022845	5.60721e-06
2	0	0	0	1	433.677	0.913272	0.912983	0.00492515	4	-0.022841	4.49658e-06
2	0	0	0	1	434.469	0.873655	0.873364	0.00405731	4	-0.0228374	3.54351e-06
2	0	0	1	1	435.229	0.835639	0.835302	0.00341267	4	-0.0228346	2.85061e-06
2	0	0	1	1	435.99	0.797623	0.797295	0.00280417	4	-0.0228323	2.23575e-06
2	0	0	1	1	436.75	0.759607	0.75925	0.00226826	4	-0.0228304	1.72218e-06
2	0	0	0	1	437.51	0.721591	0.72128	0.00184119	4	-0.0228288	1.32801e-06
2	0	0	0	1	438.271	0.683575	0.683194	0.00142211	4	-0.0228276	9.71575e-07
2	0	0	1	1	439.031	0.645559	0.645199	0.00100528	4	-0.0228267	6.48605e-07
2	0	0	1	1	439.791	0.607543	0.607168	0.000621992	4	-0.0228261	3.77654e-07
2	0	0	1	1	440.552	0.569527	0.569178	0.000252247	4	-0.0228258	1.43573e-07
2	0	0	0	1	441.312	0.531511	0.531147	-0.000122953	4	-0.0228257	-6.53059e-08
2	0	0	0	1	442.072	0.493495	0.493123	-0.000460468	4	-0.022826	-2.27067e-07
2	0	0	1	1	442.832	0.45548	0.45512	-0.000832842	4	-0.0228265	-3.79043e-07
2	0	0	1	1	443.593	0.417464	0.417141	-0.00114614	4	-0.0228272	-4.781e-07
2	0	0	1	1	444.353	0.379448	0.379062	-0.00148439	4	-0.0228283	-5.62678e-07
2	0	0	0	1	445.113	0.341432	0.341033	-0.00181651	4	-0.0228295	-6.19489e-07
2	0	0	0	1	445.874	0.303416	0.303085	-0.0021691	4	-0.0228311	-6.57422e-07
2	0	0	1	1	446.634	0.2654	0.265013	-0.00252279	4	-0.0228329	-6.68571e-07
2	0	0	1	1	447.394	0.227384	0.227029	-0.00283616	4	-0.0228349	-6.43889e-07
2	0	0	1	1	448.155	0.189368	0.188982	-0.00317215	4	-0.0228372	-5.99479e-07
2	0	0	0	1	448.915	0.151352	0.150963	-0.00350467	4	-0.0228397	-5.29075e-07
2	0	0	0	1	449.675	0.113336	0.112958	-0.00380327	4	-0.0228425	-4.29609e-07
2	0	0	1	1	450.436	0.07532	0.0749386	-0.00414021	4	-0.0228456	-3.10262e-07
2	0	0	1	1	451.196	0.037304	0.0369163	-0.00439872	4	-0.0228488	-1.62385e-07
2	0	0	1	1	451.956	-0.000711933	-0.00117696	-0.00469575	4	-0.0228523	5.5267e-09
2	0	0	0	1	452.717	-0.0387279	-0.0391928	-0.0050311	4	-0.022856	1.97183e-07
2	0	0	0	1	453.477	-0.0767439	-0.0771992	-0.00540855	4	-0.02286	4.17535e-07
2	0	0	1	1	454.237	-0.11476	-0.115214	-0.00581345	4	-0.0228642	6.6979e-07
2	0	0	1	1	454.998	-0.152776	-0.153212	-0.00621968	4	-0.0228688	9.52928e-07
2	0	0	0	1	455.758	-0.190787	-0.191241	-0.00670845	4	-0.0228737	1.28293e-06
2	0	0	0	1	456.518	-0.228808	-0.229244	-0.00748887	4	-0.0228791	1.71678e-06
2	0	0	0	1	457.279	-0.266824	-0.267256	-0.00880462	4	-0.0228853	2.35309e-06
2	0	0	1	1	458.071	-0.30644	-0.306867	-0.0108636	4	-0.022893	3.33367e-06
2	0	0	1	1	458.831	-0.344456	-0.344897	-0.0135563	4	-0.0229023	4.67552e-06
2	0	0	1	1	459.592	-0.382472	-0.382935	-0.0169585	4	-0.0229139	6.49402e-06
2	0	0	0	1	460.352	-0.420488	-0.420945	-0.0209069	4	-0.0229283	8.80066e-06
2	0	0	0	1	461.112	-0.458504	-0.458951	-0.0255152	4	-0.0229459	1.17102e-05
2	0	0	1	1	461.872	-0.49652	-0.496977	-0.0310984	4	-0.0229674	1.54552e-05
2	0	0	1	1	462.633	-0.534536	-0.534975	-0.0374307	4	-0.0229935	2.00245e-05
2	0	0	1	1	463.393	-0.572552	-0.572979	-0.0444288	4	-0.0230246	2.54567e-05
2	0	0	0	1	464.153	-0.610568	-0.610977	-0.0517351	4	-0.0230612	3.16089e-05
2	0	0	0	1	464.914	-0.648584	-0.649022	-0.0594807	4	-0.0231035	3.86043e-05
2	0	0	1	1	465.674	-0.6866	-0.687065	-0.0676489	4	-0.0231518	4.64792e-05
2	0	0	1	1	466.434	-0.724616	-0.725037	-0.0763584	4	-0.0232066	5.53627e-05
2	0	0	1	1	467.195	-0.762632	-0.763086	-0.0850041	4	-0.023268	6.48655e-05
2	0	0	0	1	467.955	-0.800648	-0.801067	-0.0933697	4	-0.0233359	7.47953e-05
2	0	0	0	1	468.715	-0.838664	-0.839093	-0.100905	4	-0.0234098	8.46683e-05
2	0	0	1	1	469.508	-0.878281	-0.878714	-0.107356	4	-0.0234924	9.43354e-05
2	0	0	1	1	470.268	-0.916297	-0.916722	-0.113009	4	-0.0235763	0.000103598
2	0	0	1	1	471.028	-0.954313	-0.954736	-0.117575	4	-0.0236641	0.000112254
2	0	0	0	1	471.789	-0.992329	-0.992763	-0.121643	4	-0.0237551	0.000120763
2	0	0	0	1	472.549	-1.03034	-1.03081	-0.125117	4	-0.023849	0.000128972
2	0	0	1	1	473.309	-1.06836	-1.0688	-0.127953	4	-0.0239454	0.000136756
2	0	0	1	1	474.07	-1.10638	-1.10681	-0.130916	4	-0.0240439	0.000144899
2	0	0	1	1	474.83	-1.14439	-1.14481	-0.133231	4	-0.0241443	0.000152524
2	0	0	0	1	475.59	-1.18241	-1.18283	-0.135687	4	-0.0242465	0.000160495
2	0	0	0	1	476.351	-1.22042	-1.22082	-0.137352	4	-0.0243503	0.000167682
2	0	0	1	1	477.111	-1.25844	-1.25885	-0.139781	4	-0.0244556	0.000175963
2	0	0	1	1	477.871	-1.29646	-1.29691	-0.141371	4	-0.0245624	0.000183345
2	0	0	1	1	478.632	-1.33447	-1.33489	-0.142652	4	-0.0246704	0.000190426
2	0	0	0	1	479.392	-1.37249	-1.3729	-0.144416	4	-0.0247796	0.000198269
2	0	0	0	1	480.152	-1.4105	-1.41092	-0.146206	4	-0.0248903	0.000206285
2	0	0	1	1	480.912	-1.44852	-1.4489	-0.148903	4	-0.0250025	0.000215745
2	0	0	1	1	481.673	-1.48654	-1.48697	-0.151455	4	-0.0251168	0.000225209
2	0	0	1	1	482.433	-1.52455	-1.52494	-0.154534	4	-0.025233	0.000235656
2	0	0	0	1	483.193	-1.56257	-1.56295	-0.158416	4	-0.0253519	0.000247597
2	0	0	0	1	483.954	-1.60058	-1.60099	-0.162538	4	-0.025474	0.000260221
2	0	0	1	1	484.714	-1.6386	-1.63893	-0.169029	4	-0.0256002	0.000277028
2	0	0	1	1	485.474	-1.67662	-1.67707	-0.175912	4	-0.0257313	0.000295016
2	0	0	1	1	486.235	-1.71463	-1.71504	-0.185792	4	-0.0258689	0.000318641
2	0	0	0	1	486.995	-1.75265	-1.75305	-0.196038	4	-0.0260139	0.000343665
2	0	0	0	1	487.755	-1.79066	-1.79106	-0.209165	4	-0.026168	0.000374626
2	0	0	1	1	488.516	-1.82868	-1.82907	-0.224257	4	-0.0263325	0.000410181
2	0	0	1	1	489.276	-1.8667	-1.86707	-0.23949	4	-0.0265088	0.000447145
2	0	0	0	1	490.036	-1.90471	-1.90507	-0.257196	4	-0.0266977	0.000489977
2	0	0	0	1	490.797	-1.94273	-1.94308	-0.275463	4	-0.0268999	0.000535247
2	0	0	0	1	491.557	-1.98074	-1.98108	-0.294832	4	-0.0271163	0.000584086
2	1	0	0	0	492.294	-1.98244	-1.9828	-0.283139	4	-0.0273346	0.000561408
2	1	0	0	0	493.054	-1.94443	-1.94482	-0.257079	4	-0.027539	0.000499972
2	1	0	1	0	493.814	-1.90641	-1.90676	-0.236584	4	-0.027726	0.000451109
2	1	0	1	0	494.575	-1.8684	-1.86874	-0.220927	4	-0.0278998	0.000412854
2	1	0	1	0	495.335	-1.83038	-1.83077	-0.208496	4	-0.0280629	0.000381709
2	1	0	0	0	496.095	-1.79236	-1.79273	-0.196974	4	-0.028217	0.000353123
2	1	0	0	0	496.856	-1.75435	-1.7547	-0.18701	4	-0.0283628	0.000328147
2	1	0	1	0	497.616	-1.71633	-1.71676	-0.177401	4	-0.0285013	0.000304554
2	1	0	1	0	498.376	-1.67832	-1.67875	-0.168896	4	-0.0286329	0.000283534
2	1	0	1	0	499.137	-1.6403	-1.64071	-0.161456	4	-0.0287583	0.000264902
2	1	0	0	0	499.897	-1.60228	-1.60269	-0.15337	4	-0.0288778	0.000245805
2	1	0	0	0	500.657	-1.56427	-1.56464	-0.146598	4	-0.0289917	0.000229372
2	1	0	1	0	501.418	-1.52625	-1.52669	-0.139624	4	-0.0291005	0.000213161
2	1	0	1	0	502.178	-1.48824	-1.48863	-0.134413	4	-0.0292046	0.000200091
2	1	0	1	0	502.938	-1.45022	-1.4506	-0.129461	4	-0.0293048	0.000187796
2	1	0	0	0	503.699	-1.4122	-1.41262	-0.125847	4	-0.0294018	0.000177774
2	1	0	0	0	504.459	-1.37419	-1.37459	-0.122362	4	-0.0294961	0.000168197
2	1	0	1	0	505.219	-1.33617	-1.3366	-0.119361	4	-0.029588	0.000159538
2	1	0	1	0	505.98	-1.29816	-1.29857	-0.116766	4	-0.0296777	0.000151629
2	1	0	1	0	506.74	-1.26014	-1.26055	-0.113741	4	-0.0297653	0.000143377
2	1	0	0	0	507.5	-1.22213	-1.22255	-0.111593	4	-0.0298509	0.000136428
2	1	0	0	0	508.261	-1.18411	-1.18452	-0.109547	4	-0.0299349	0.000129761
2	1	0	1	0	509.021	-1.14609	-1.14653	-0.106923	4	-0.0300172	0.000122591
2	1	0	1	0	509.781	-1.10808	-1.1085	-0.104646	4	-0.0300977	0.000116
2	1	0	1	0	510.542	-1.07006	-1.07049	-0.101197	4	-0.0301759	0.00010833
2	1	0	0	0	511.302	-1.03205	-1.03247	-0.0972783	4	-0.0302514	0.000100437
2	1	0	0	0	511.942	-0.999982	-1.00046	-0.0927181	4	-0.0303122	9.27605e-05