File: RDE_data/02262020_MnO2_RDE_50mVs_900rpm_ExtendedBounds_IncreasedFlow_C04.mpt
EC-Lab ASCII FILE
Nb header lines : 56

Cyclic Voltammetry

Run on channel : 4 (SN 35517)
User : CESL
CE vs. WE compliance from -10 V to 10 V
Electrode connection : standard
Ewe ctrl range : min = -2.50 V, max = 2.50 V
Safety Limits :
	Do not start on E overload
Acquisition started on : 02/26/2020 14:14:01
Technique started on : 02/26/2020 14:14:01
Saved on :
	File : 02262020_MnO2_RDE_50mVs_900rpm_ExtendedBounds_IncreasedFlow_C04.mpr
	Directory : C:\Users\CESL\Documents\EC-Lab\Data\Undergrad\Katelyn\EChem\
	Host : 169.254.217.189
Device : VSP (SN 1724172417241724)
Address : USB
EC-Lab for windows v11.16 (software)
Internet server v11.16 (firmware)
Command interpretor v11.16 (firmware)
Electrode material : Au/Pd
Initial state :
Electrolyte : NaCl (0.2M)
Comments : Fe(CN)63-/Fe(CN)64- 5.10-3 M
Reference electrode : SCE Saturated Calomel Electrode (0.241 V)
Electrode surface area : 0.001 cm²
Characteristic mass : 0.001 g
Equivalent Weight : 0.000 g/eq.
Density : 0.000 g/cm3
Cycle Definition : Charge/Discharge alternance
Ei (V)              -1.000
vs.                 Ref
dE/dt               50.000
dE/dt unit          mV/s
E1 (V)              1.200
vs.                 Ref
Step percent        50
N                   10
E range min (V)     -2.500
E range max (V)     2.500
I Range             Auto
I Range min         Unset
I Range max         Unset
I Range init        Unset
Bandwidth           5
E2 (V)              -2.000
vs.                 Ref
nc cycles           3
Reverse Scan        1
Ef (V)              -1.000
vs.                 Ref

mode	ox/red	error	control changes	counter inc.	time/s	control/V	Ewe/V	<I>/mA	cycle number	(Q-Qo)/C	P/W
2	1	0	0	0	0.000000000000000E+000	-0.99698	-0.997344	-0.286574	1	0.0000000E+000	0.000285813
2	1	0	1	0	0.7512	-0.959415	-0.959812	-0.0957757	1	-0.000103698	9.19267e-05
2	1	0	1	0	1.5116	-0.921399	-0.921862	-0.0791153	1	-0.000168978	7.29334e-05
2	1	0	0	0	2.2718	-0.883383	-0.88379	-0.0704872	1	-0.000225664	6.22959e-05
2	1	0	0	0	3.0322	-0.845367	-0.845836	-0.0628014	1	-0.000276377	5.31197e-05
2	1	0	0	0	3.7926	-0.807351	-0.807778	-0.0546921	1	-0.000321016	4.41791e-05
2	1	0	1	0	4.5848	-0.767734	-0.768162	-0.045758	1	-0.000360763	3.51495e-05
2	1	0	1	0	5.3452	-0.729718	-0.73012	-0.0374743	1	-0.000392397	2.73607e-05
2	1	0	0	0	6.1054	-0.691702	-0.692111	-0.030171	1	-0.000418029	2.08817e-05
2	1	0	0	0	6.8658	-0.653686	-0.654144	-0.0237795	1	-0.000438413	1.55552e-05
2	1	0	0	0	7.6262	-0.61567	-0.616067	-0.0187691	1	-0.000454524	1.1563e-05
2	1	0	1	0	8.3864	-0.577654	-0.578086	-0.0147068	1	-0.000467175	8.50178e-06
2	1	0	1	0	9.1468	-0.539638	-0.540071	-0.0114066	1	-0.000477009	6.16035e-06
2	1	0	0	0	9.907	-0.501622	-0.502071	-0.00913612	1	-0.000484718	4.58698e-06
2	1	0	0	0	10.6674	-0.463606	-0.464088	-0.00792355	1	-0.000491128	3.67722e-06
2	1	0	0	0	11.4278	-0.42559	-0.426094	-0.00689259	1	-0.000496782	2.93689e-06
2	1	0	1	0	12.188	-0.387574	-0.388001	-0.00503169	1	-0.000501352	1.9523e-06
2	1	0	1	0	12.9804	-0.347958	-0.34838	-0.00232107	1	-0.000504263	8.08616e-07
2	1	0	0	0	13.7407	-0.309937	-0.310409	0.000233777	1	-0.000505027	-7.25665e-08
2	1	0	0	0	14.501	-0.271926	-0.272337	0.00228097	1	-0.000504026	-6.21192e-07
2	1	0	0	0	15.2614	-0.23391	-0.234317	0.00360968	1	-0.000501725	-8.45812e-07
2	1	0	1	0	16.0216	-0.195894	-0.196292	0.00442467	1	-0.000498615	-8.68528e-07
2	1	0	1	0	16.782	-0.157878	-0.158311	0.00479972	1	-0.000495078	-7.59849e-07
2	1	0	0	0	17.5422	-0.119862	-0.120314	0.00518943	1	-0.000491269	-6.24363e-07
2	1	0	0	0	18.3026	-0.081846	-0.0822603	0.00541311	1	-0.000487224	-4.45284e-07
2	1	0	0	0	19.063	-0.0438301	-0.0442497	0.00561283	1	-0.000483014	-2.48366e-07
2	1	0	1	0	19.8232	-0.00581408	-0.00621894	0.00576321	1	-0.000478679	-3.58411e-08
2	1	0	1	0	20.5836	0.0322019	0.0318383	0.00586205	1	-0.000474244	1.86638e-07
2	1	0	0	0	21.3438	0.0702178	0.069851	0.00595598	1	-0.000469732	4.16031e-07
2	1	0	0	0	22.1042	0.108234	0.107877	0.00601003	1	-0.000465174	6.48347e-07
2	1	0	0	0	22.8646	0.14625	0.145955	0.0061112	1	-0.000460544	8.91959e-07
2	1	0	1	0	23.6248	0.184266	0.183918	0.0062627	1	-0.000455832	1.15182e-06
2	1	0	1	0	24.3852	0.222282	0.221966	0.00637943	1	-0.000451017	1.41602e-06
2	1	0	0	0	25.1454	0.260298	0.25995	0.00653713	1	-0.000446097	1.69933e-06
2	1	0	0	0	25.9058	0.298314	0.298002	0.00670225	1	-0.000441058	1.99729e-06
2	1	0	0	0	26.6662	0.33633	0.336008	0.0069069	1	-0.000435861	2.32077e-06
2	1	0	1	0	27.4264	0.374345	0.374068	0.00715988	1	-0.000430505	2.67828e-06
2	1	0	1	0	28.1868	0.412361	0.412025	0.00733898	1	-0.000424985	3.02384e-06
2	1	0	0	0	28.947	0.450377	0.450067	0.00753204	1	-0.000419322	3.38992e-06
2	1	0	0	0	29.7074	0.488393	0.488134	0.00777649	1	-0.000413499	3.79596e-06
2	1	0	0	0	30.4678	0.526409	0.526073	0.00796165	1	-0.000407511	4.18841e-06
2	1	0	1	0	31.228	0.564425	0.564159	0.00832161	1	-0.000401315	4.69471e-06
2	1	0	1	0	31.9884	0.602441	0.602114	0.00869275	1	-0.000394837	5.23403e-06
2	1	0	0	0	32.7486	0.640457	0.640146	0.00921352	1	-0.000388023	5.898e-06
2	1	0	0	0	33.509	0.678473	0.678213	0.00985721	1	-0.000380772	6.68529e-06
2	1	0	0	0	34.3014	0.71809	0.717803	0.010571	1	-0.000372664	7.58789e-06
2	1	0	1	0	35.0616	0.756106	0.75579	0.0113458	1	-0.000364294	8.57508e-06
2	1	0	1	0	35.822	0.794122	0.793826	0.012276	1	-0.00035528	9.74501e-06
2	1	0	0	0	36.5822	0.832138	0.831818	0.0132485	1	-0.000345552	1.10203e-05
2	1	0	0	0	37.3426	0.870154	0.869782	0.014336	1	-0.000335035	1.24692e-05
2	1	0	0	0	38.103	0.90817	0.907828	0.0156095	1	-0.000323631	1.41708e-05
2	1	0	1	0	38.8632	0.946186	0.945907	0.016852	1	-0.000311253	1.59404e-05
2	1	0	1	0	39.6236	0.984201	0.983934	0.01831	1	-0.000297878	1.80158e-05
2	1	0	0	0	40.3838	1.02222	1.02188	0.0199553	1	-0.000283305	2.03919e-05
2	1	0	0	0	41.1442	1.06023	1.05992	0.021652	1	-0.000267465	2.29494e-05
2	1	0	0	0	41.9046	1.09825	1.09793	0.0236477	1	-0.000250221	2.59636e-05
2	1	0	1	0	42.6648	1.13627	1.13598	0.0257118	1	-0.000231451	2.92081e-05
2	1	0	1	0	43.4252	1.17428	1.17401	0.0282598	1	-0.000210918	3.31774e-05
2	0	0	0	0	44.1319	1.19038	1.1901	0.0260924	1	-0.000190536	3.10524e-05
2	0	0	0	0	44.8922	1.15237	1.15212	0.0178051	1	-0.000174255	2.05135e-05
2	0	0	0	0	45.6526	1.11436	1.11408	0.0132175	1	-0.000162643	1.47254e-05
2	0	0	1	0	46.4128	1.07634	1.07602	0.0102426	1	-0.000153841	1.10212e-05
2	0	0	1	0	47.1732	1.03832	1.03807	0.00820118	1	-0.000146904	8.51336e-06
2	0	0	0	0	47.9334	1.00031	0.999964	0.00661891	1	-0.000141331	6.61867e-06
2	0	0	0	0	48.6938	0.962292	0.961983	0.00544407	1	-0.000136797	5.2371e-06
2	0	0	0	0	49.4842	0.922776	0.922454	0.00438492	1	-0.000132952	4.04488e-06
2	0	0	1	0	50.2444	0.88476	0.884438	0.00359198	1	-0.000129938	3.17689e-06
2	0	0	1	0	51.0048	0.846744	0.846404	0.00291525	1	-0.000127481	2.46748e-06
2	0	0	1	0	51.7652	0.808728	0.808373	0.00236547	1	-0.000125488	1.91218e-06
2	0	0	0	0	52.5254	0.770712	0.770382	0.00183532	1	-0.000123904	1.4139e-06
2	0	0	0	0	53.2858	0.732696	0.732344	0.00141365	1	-0.000122682	1.03528e-06
2	0	0	1	0	54.046	0.69468	0.694332	0.00101311	1	-0.000121782	7.03434e-07
2	0	0	1	0	54.8064	0.656664	0.656358	0.000599532	1	-0.000121184	3.93508e-07
2	0	0	0	0	55.5667	0.618651	0.618277	0.000287353	1	-0.00012086	1.77664e-07
2	0	0	0	0	56.327	0.580632	0.580286	-8.59085e-05	1	-0.000120799	-4.98516e-08
2	0	0	0	0	57.0874	0.542616	0.542275	-0.000397114	1	-0.000120995	-2.15345e-07
2	0	0	1	0	57.8476	0.5046	0.504238	-0.000736581	1	-0.000121443	-3.71412e-07
2	0	0	1	0	58.608	0.466584	0.466215	-0.00103872	1	-0.000122128	-4.84266e-07
2	0	0	0	0	59.3683	0.428567	0.42823	-0.00134038	1	-0.000123052	-5.7399e-07
2	0	0	0	0	60.1286	0.390552	0.390153	-0.00169541	1	-0.000124216	-6.61468e-07
2	0	0	0	0	60.889	0.352536	0.352115	-0.00198601	1	-0.000125615	-6.99302e-07
2	0	0	1	0	61.6492	0.31452	0.314136	-0.0023207	1	-0.000127261	-7.29014e-07
2	0	0	1	0	62.4096	0.276504	0.276084	-0.00265986	1	-0.000129153	-7.34346e-07
2	0	0	0	0	63.1699	0.238484	0.238059	-0.002951	1	-0.000131291	-7.0251e-07
2	0	0	0	0	63.9302	0.200473	0.200026	-0.00328975	1	-0.000133678	-6.58036e-07
2	0	0	0	0	64.6906	0.162457	0.162063	-0.00356248	1	-0.000136308	-5.77347e-07
2	0	0	1	0	65.4508	0.124441	0.124034	-0.00390566	1	-0.000139187	-4.84437e-07
2	0	0	1	0	66.2112	0.0864246	0.0860505	-0.00421328	1	-0.000142294	-3.62555e-07
2	0	0	0	0	66.9714	0.0484087	0.0480569	-0.00450371	1	-0.000145638	-2.16434e-07
2	0	0	0	0	67.7318	0.0103927	0.00998796	-0.00478034	1	-0.000149174	-4.77458e-08
2	0	0	0	0	68.4922	-0.0276232	-0.0280852	-0.00507049	1	-0.000152934	1.42406e-07
2	0	0	1	0	69.2524	-0.0656392	-0.0660746	-0.00548845	1	-0.000156952	3.62647e-07
2	0	0	1	0	70.0128	-0.103655	-0.104113	-0.00583491	1	-0.000161267	6.07488e-07
2	0	0	0	0	70.773	-0.141671	-0.142089	-0.00622839	1	-0.00016586	8.84988e-07
2	0	0	0	0	71.5334	-0.179687	-0.180124	-0.00668906	1	-0.000170775	1.20486e-06
2	0	0	0	0	72.2938	-0.217703	-0.218133	-0.00728213	1	-0.000176083	1.58847e-06
2	0	0	1	0	73.054	-0.255719	-0.256151	-0.00836325	1	-0.000182006	2.14225e-06
2	0	0	1	0	73.8144	-0.293735	-0.294206	-0.0100165	1	-0.000188968	2.94692e-06
2	0	0	0	0	74.6067	-0.333351	-0.333757	-0.012456	1	-0.000197843	4.15728e-06
2	0	0	0	0	75.367	-0.371368	-0.371826	-0.0153821	1	-0.000208428	5.71947e-06
2	0	0	0	0	76.1274	-0.409384	-0.409798	-0.0189275	1	-0.000221478	7.75647e-06
2	0	0	1	0	76.8876	-0.4474	-0.447839	-0.0227843	1	-0.000237329	1.02037e-05
2	0	0	1	0	77.648	-0.485416	-0.485835	-0.0275005	1	-0.000256431	1.33607e-05
2	0	0	0	0	78.4083	-0.523434	-0.523893	-0.0330065	1	-0.000279431	1.72919e-05
2	0	0	0	0	79.1686	-0.561448	-0.561872	-0.0390277	1	-0.000306841	2.19286e-05
2	0	0	0	0	79.929	-0.599464	-0.599916	-0.0454831	1	-0.000338968	2.7286e-05
2	0	0	1	0	80.6892	-0.637479	-0.637937	-0.0517857	1	-0.000375946	3.3036e-05
2	0	0	1	0	81.4496	-0.675495	-0.675906	-0.0584129	1	-0.000417836	3.94817e-05
2	0	0	0	0	82.2098	-0.713511	-0.713909	-0.0652484	1	-0.000464827	4.65815e-05
2	0	0	0	0	82.9702	-0.751527	-0.752013	-0.071906	1	-0.000517018	5.40743e-05
2	0	0	0	0	83.7306	-0.789543	-0.789967	-0.0781415	1	-0.000574175	6.17291e-05
2	0	0	1	0	84.4908	-0.827559	-0.827956	-0.0831328	1	-0.000635625	6.88303e-05
2	0	0	1	0	85.2512	-0.865575	-0.866016	-0.0880446	1	-0.000700838	7.62481e-05
2	0	0	0	0	86.0114	-0.903591	-0.904026	-0.0918525	1	-0.000769235	8.30371e-05
2	0	0	0	0	86.7718	-0.941607	-0.941975	-0.0952156	1	-0.000840396	8.96907e-05
2	0	0	0	0	87.5322	-0.979623	-0.980053	-0.097992	1	-0.000913889	9.60374e-05
2	0	0	1	0	88.2924	-1.01764	-1.01805	-0.100094	1	-0.000989324	0.000101901
2	0	0	1	0	89.0528	-1.05566	-1.05604	-0.102995	1	-0.00106659	0.000108767
2	0	0	0	0	89.8451	-1.09527	-1.09569	-0.104833	1	-0.00114895	0.000114864
2	0	0	0	0	90.6054	-1.13329	-1.13375	-0.106717	1	-0.00122934	0.00012099
2	0	0	0	0	91.3658	-1.1713	-1.17174	-0.108197	1	-0.00131114	0.000126779
2	0	0	1	0	92.126	-1.20932	-1.20969	-0.109985	1	-0.00139416	0.000133048
2	0	0	1	0	92.8864	-1.24734	-1.24778	-0.111134	1	-0.0014783	0.000138671
2	0	0	0	0	93.6467	-1.28536	-1.28576	-0.112654	1	-0.00156348	0.000144846
2	0	0	0	0	94.407	-1.32337	-1.32378	-0.113856	1	-0.00164979	0.00015072
2	0	0	0	0	95.1674	-1.36138	-1.36177	-0.115767	1	-0.00173714	0.000157648
2	0	0	1	0	95.9276	-1.3994	-1.39981	-0.11742	1	-0.00182573	0.000164366
2	0	0	1	0	96.688	-1.43742	-1.43779	-0.11939	1	-0.00191576	0.000171658
2	0	0	0	0	97.4482	-1.47543	-1.4758	-0.122189	1	-0.00200755	0.000180326
2	0	0	0	0	98.2086	-1.51345	-1.51383	-0.124977	1	-0.00210145	0.000189194
2	0	0	0	0	98.969	-1.55146	-1.55184	-0.128371	1	-0.00219781	0.000199211
2	0	0	1	0	99.7292	-1.58948	-1.58986	-0.133427	1	-0.00229745	0.000212129
2	0	0	1	0	100.49	-1.6275	-1.62786	-0.139609	1	-0.00240118	0.000227264
2	0	0	0	0	101.25	-1.66551	-1.66593	-0.146874	1	-0.00250992	0.000244681
2	0	0	0	0	102.01	-1.70353	-1.70395	-0.156094	1	-0.002625	0.000265975
2	0	0	0	0	102.771	-1.74154	-1.74193	-0.166547	1	-0.00274758	0.000290113
2	0	0	1	0	103.531	-1.77956	-1.77989	-0.179403	1	-0.00287898	0.000319317
2	0	0	1	0	104.291	-1.81758	-1.81795	-0.193024	1	-0.00302047	0.000350909
2	0	0	0	0	105.051	-1.85559	-1.85597	-0.209044	1	-0.00317322	0.000387978
2	0	0	0	0	105.812	-1.89361	-1.89397	-0.22503	1	-0.00333822	0.0004262
2	0	0	0	0	106.572	-1.93162	-1.93199	-0.242588	1	-0.00351577	0.000468677
2	0	0	1	0	107.332	-1.96964	-1.97	-0.261183	1	-0.00370711	0.00051453
2	1	0	0	1	108.071	-1.99345	-1.99381	-0.26578	1	-0.00390627	0.000529915
2	1	0	1	1	108.832	-1.95543	-1.95578	-0.233812	1	-0.0040953	0.000457284
2	1	0	1	1	109.592	-1.91742	-1.9178	-0.212479	1	-0.00426439	0.000407492
2	1	0	1	1	110.352	-1.8794	-1.87978	-0.194273	1	-0.00441867	0.000365189
2	1	0	0	1	111.113	-1.84139	-1.84177	-0.181817	1	-0.00456117	0.000334866
2	1	0	0	1	111.873	-1.80337	-1.80377	-0.168661	1	-0.00469423	0.000304226
2	1	0	1	1	112.633	-1.76535	-1.76576	-0.158995	1	-0.00481884	0.000280747
2	1	0	1	1	113.394	-1.72734	-1.72779	-0.150183	1	-0.00493626	0.000259484
2	1	0	1	1	114.154	-1.68932	-1.6897	-0.141924	1	-0.00504727	0.000239809
2	1	0	0	1	114.914	-1.65131	-1.65174	-0.134743	1	-0.00515229	0.000222562
2	1	0	0	1	115.675	-1.61329	-1.61368	-0.127153	1	-0.00525182	0.000205185
2	1	0	1	1	116.435	-1.57527	-1.57567	-0.121015	1	-0.00534619	0.000190679
2	1	0	1	1	117.195	-1.53726	-1.53767	-0.114626	1	-0.00543567	0.000176257
2	1	0	1	1	117.956	-1.49924	-1.49964	-0.109296	1	-0.00552079	0.000163904
2	1	0	0	1	118.716	-1.46123	-1.46163	-0.103952	1	-0.00560184	0.00015194
2	1	0	0	1	119.476	-1.42321	-1.42365	-0.0999722	1	-0.00567932	0.000142325
2	1	0	1	1	120.236	-1.38519	-1.38558	-0.0962787	1	-0.00575384	0.000133402
2	1	0	1	1	120.997	-1.34718	-1.34761	-0.0936306	1	-0.00582602	0.000126178
2	1	0	0	1	121.757	-1.30916	-1.30959	-0.0909873	1	-0.00589613	0.000119156
2	1	0	0	1	122.517	-1.27115	-1.27156	-0.0881348	1	-0.0059642	0.000112069
2	1	0	0	1	123.278	-1.23313	-1.23357	-0.0856307	1	-0.00603012	0.000105632
2	1	0	1	1	124.038	-1.19511	-1.1955	-0.0833196	1	-0.00609423	9.96084e-05
2	1	0	1	1	124.798	-1.1571	-1.15754	-0.0817495	1	-0.00615687	9.46284e-05
2	1	0	0	1	125.559	-1.11908	-1.1195	-0.0802839	1	-0.00621845	8.98777e-05
2	1	0	0	1	126.319	-1.08107	-1.08149	-0.0781347	1	-0.00627869	8.4502e-05
2	1	0	0	1	127.079	-1.04305	-1.04346	-0.0762192	1	-0.00633739	7.95314e-05
2	1	0	1	1	127.84	-1.00503	-1.00549	-0.0729826	1	-0.00639419	7.33831e-05
2	1	0	1	1	128.574	-0.968318	-0.968731	-0.0695776	2	-0.00644663	6.7402e-05
2	1	0	0	1	129.334	-0.930303	-0.930759	-0.064788	2	-0.00649772	6.0302e-05
2	1	0	0	1	130.095	-0.892287	-0.892768	-0.0589021	2	-0.00654479	5.25858e-05
2	1	0	0	1	130.855	-0.854271	-0.854778	-0.0522252	2	-0.00658704	4.4641e-05
2	1	0	1	1	131.647	-0.814654	-0.815067	-0.0442083	2	-0.00662521	3.60327e-05
2	1	0	1	1	132.408	-0.776638	-0.777062	-0.0364508	2	-0.00665584	2.83245e-05
2	1	0	0	1	133.168	-0.738622	-0.739026	-0.0288435	2	-0.00668055	2.13161e-05
2	1	0	0	1	133.928	-0.700606	-0.701061	-0.0220688	2	-0.00669982	1.54716e-05
2	1	0	0	1	134.689	-0.66259	-0.662997	-0.0165003	2	-0.00671441	1.09397e-05
2	1	0	1	1	135.449	-0.624574	-0.625011	-0.0120555	2	-0.00672516	7.53481e-06
2	1	0	1	1	136.209	-0.586558	-0.587006	-0.00852162	2	-0.0067329	5.00224e-06
2	1	0	0	1	136.969	-0.548542	-0.548962	-0.00572363	2	-0.00673822	3.14206e-06
2	1	0	0	1	137.762	-0.508925	-0.509356	-0.00381499	2	-0.0067419	1.94319e-06
2	1	0	0	1	138.522	-0.47091	-0.471302	-0.00298259	2	-0.00674444	1.4057e-06
2	1	0	1	1	139.282	-0.432894	-0.433332	-0.00251599	2	-0.00674657	1.09026e-06
2	1	0	1	1	140.043	-0.394878	-0.395302	-0.00108048	2	-0.00674802	4.27116e-07
2	1	0	0	1	140.803	-0.356865	-0.357276	0.00109915	2	-0.00674802	-3.92699e-07
2	1	0	0	1	141.563	-0.318846	-0.319221	0.0033247	2	-0.00674632	-1.06131e-06
2	1	0	0	1	142.324	-0.28083	-0.281254	0.00511432	2	-0.00674306	-1.43842e-06
2	1	0	1	1	143.084	-0.242814	-0.243254	0.00626703	2	-0.0067387	-1.52448e-06
2	1	0	1	1	143.844	-0.204798	-0.205159	0.00680208	2	-0.00673369	-1.39551e-06
2	1	0	0	1	144.605	-0.166781	-0.167208	0.00707549	2	-0.00672838	-1.18308e-06
2	1	0	0	1	145.365	-0.128766	-0.129148	0.00713236	2	-0.00672294	-9.21127e-07
2	1	0	0	1	146.125	-0.0907498	-0.0911635	0.00715619	2	-0.00671749	-6.52383e-07
2	1	0	1	1	146.886	-0.0527338	-0.0531201	0.00714133	2	-0.00671203	-3.79348e-07
2	1	0	1	1	147.646	-0.0147178	-0.0151095	0.00715156	2	-0.00670659	-1.08057e-07
2	1	0	0	1	148.406	0.0232981	0.0229743	0.00710838	2	-0.00670116	1.6331e-07
2	1	0	0	1	149.167	0.0613141	0.0609625	0.00707358	2	-0.00669573	4.31223e-07
2	1	0	0	1	149.927	0.0993301	0.0989742	0.00713329	2	-0.00669031	7.06012e-07
2	1	0	1	1	150.687	0.137346	0.137025	0.00719171	2	-0.00668486	9.85445e-07
2	1	0	1	1	151.448	0.175362	0.175044	0.00731587	2	-0.00667933	1.2806e-06
2	1	0	0	1	152.208	0.213378	0.212987	0.0074287	2	-0.00667372	1.58221e-06
2	1	0	0	1	152.968	0.251394	0.251086	0.00757384	2	-0.00666798	1.90169e-06
2	1	0	0	1	153.729	0.28941	0.289052	0.00778964	2	-0.00666213	2.25161e-06
2	1	0	1	1	154.489	0.327426	0.327092	0.00797846	2	-0.00665613	2.60969e-06
2	1	0	1	1	155.249	0.365442	0.365084	0.0081856	2	-0.00664997	2.98843e-06
2	1	0	0	1	156.009	0.403458	0.403098	0.008392	2	-0.00664367	3.3828e-06
2	1	0	0	1	156.77	0.441474	0.441167	0.00851114	2	-0.00663723	3.75483e-06
2	1	0	0	1	157.53	0.47949	0.479173	0.00868195	2	-0.00663067	4.16016e-06
2	1	0	1	1	158.29	0.517506	0.517151	0.00891026	2	-0.00662398	4.60795e-06
2	1	0	1	1	159.051	0.555522	0.555218	0.0091585	2	-0.00661711	5.08496e-06
2	1	0	0	1	159.811	0.593537	0.593167	0.00954757	2	-0.00661	5.6633e-06
2	1	0	0	1	160.571	0.631553	0.631207	0.00997519	2	-0.00660257	6.29641e-06
2	1	0	0	1	161.364	0.67117	0.670875	0.0105622	2	-0.00659442	7.08592e-06
2	1	0	1	1	162.124	0.709186	0.708846	0.0112266	2	-0.00658612	7.95789e-06
2	1	0	1	1	162.884	0.747202	0.74683	0.012046	2	-0.00657725	8.99633e-06
2	1	0	0	1	163.645	0.785221	0.784884	0.0128544	2	-0.00656775	1.00892e-05
2	1	0	0	1	164.405	0.823234	0.822887	0.0138297	2	-0.00655759	1.13803e-05
2	1	0	0	1	165.165	0.86125	0.86097	0.0148483	2	-0.00654665	1.27839e-05
2	1	0	1	1	165.926	0.899266	0.898961	0.0160272	2	-0.0065349	1.44079e-05
2	1	0	1	1	166.686	0.937282	0.936972	0.01727	2	-0.00652222	1.61815e-05
2	1	0	0	1	167.446	0.975298	0.974998	0.018672	2	-0.00650852	1.82051e-05
2	1	0	0	1	168.207	1.01331	1.01303	0.0203838	2	-0.00649363	2.06493e-05
2	1	0	0	1	168.967	1.05133	1.05102	0.0221019	2	-0.00647748	2.32296e-05
2	1	0	1	1	169.727	1.08935	1.08908	0.0238974	2	-0.00645998	2.60261e-05
2	1	0	1	1	170.488	1.12736	1.12706	0.025967	2	-0.00644099	2.92665e-05
2	1	0	0	1	171.248	1.16538	1.16509	0.028285	2	-0.00642036	3.29546e-05
2	0	0	0	1	171.953	1.19939	1.19908	0.0303326	2	-0.0063995	3.63714e-05
2	0	0	0	1	172.713	1.16138	1.1611	0.0199145	2	-0.00638105	2.31227e-05
2	0	0	1	1	173.473	1.12336	1.12309	0.0147639	2	-0.00636807	1.65812e-05
2	0	0	1	1	174.234	1.08534	1.08506	0.0115162	2	-0.0063582	1.24958e-05
2	0	0	0	1	174.994	1.04733	1.04704	0.00927804	2	-0.00635037	9.71444e-06
2	0	0	0	1	175.754	1.00931	1.009	0.00763854	2	-0.006344	7.70732e-06
2	0	0	0	1	176.515	0.971296	0.971028	0.00632249	2	-0.00633875	6.13932e-06
2	0	0	1	1	177.275	0.93328	0.932987	0.0052835	2	-0.00633439	4.92944e-06
2	0	0	1	1	178.067	0.893664	0.893357	0.00438607	2	-0.00633061	3.91832e-06
2	0	0	1	1	178.828	0.855648	0.855337	0.00362906	2	-0.00632759	3.10406e-06
2	0	0	0	1	179.588	0.817632	0.817284	0.00302435	2	-0.00632508	2.47176e-06
2	0	0	0	1	180.348	0.779616	0.779306	0.00250551	2	-0.006323	1.95256e-06
2	0	0	1	1	181.108	0.7416	0.741292	0.00198556	2	-0.00632132	1.47188e-06
2	0	0	1	1	181.869	0.703584	0.703234	0.00154922	2	-0.00631999	1.08947e-06
2	0	0	1	1	182.629	0.665568	0.665188	0.00111359	2	-0.006319	7.40748e-07
2	0	0	0	1	183.389	0.627552	0.627184	0.000717591	2	-0.00631831	4.50062e-07
2	0	0	0	1	184.15	0.589536	0.589118	0.000346453	2	-0.00631792	2.04101e-07
2	0	0	1	1	184.91	0.55152	0.551103	2.82747e-06	2	-0.00631778	1.55823e-09
2	0	0	1	1	185.67	0.513504	0.513155	-0.000347084	2	-0.00631792	-1.78108e-07
2	0	0	1	1	186.431	0.475488	0.475095	-0.000679259	2	-0.00631832	-3.22713e-07
2	0	0	0	1	187.191	0.437472	0.437137	-0.000990299	2	-0.00631897	-4.32896e-07
2	0	0	0	1	187.951	0.399456	0.399052	-0.00130938	2	-0.00631986	-5.22512e-07
2	0	0	1	1	188.712	0.36144	0.361067	-0.001648	2	-0.006321	-5.95038e-07
2	0	0	1	1	189.472	0.323424	0.323028	-0.00196961	2	-0.00632239	-6.36237e-07
2	0	0	0	1	190.232	0.285411	0.285077	-0.00228722	2	-0.00632402	-6.52033e-07
2	0	0	0	1	190.993	0.247392	0.246976	-0.00265197	2	-0.00632591	-6.54973e-07
2	0	0	0	1	191.753	0.209376	0.209032	-0.00296083	2	-0.00632806	-6.18908e-07
2	0	0	1	1	192.513	0.17136	0.17097	-0.00327204	2	-0.00633045	-5.5942e-07
2	0	0	1	1	193.274	0.133344	0.132982	-0.00355282	2	-0.00633306	-4.72462e-07
2	0	0	0	1	194.034	0.0953284	0.0949215	-0.00385004	2	-0.0063359	-3.65452e-07
2	0	0	0	1	194.794	0.0573124	0.0569336	-0.00411366	2	-0.00633894	-2.34206e-07
2	0	0	0	1	195.555	0.0192965	0.0188838	-0.00438722	2	-0.0063422	-8.28476e-08
2	0	0	1	1	196.315	-0.0187195	-0.019148	-0.00469647	2	-0.00634566	8.99278e-08
2	0	0	1	1	197.075	-0.0567355	-0.0571829	-0.0049852	2	-0.00634935	2.85069e-07
2	0	0	0	1	197.835	-0.0947558	-0.0952289	-0.005373	2	-0.0063533	5.11664e-07
2	0	0	0	1	198.596	-0.132767	-0.133227	-0.00573071	2	-0.00635753	7.63488e-07
2	0	0	0	1	199.356	-0.170783	-0.171233	-0.00614374	2	-0.00636206	1.05201e-06
2	0	0	1	1	200.116	-0.208799	-0.209266	-0.006705	2	-0.00636693	1.40312e-06
2	0	0	1	1	200.877	-0.246815	-0.247286	-0.00756046	2	-0.00637232	1.86959e-06
2	0	0	0	1	201.637	-0.284831	-0.285307	-0.00910897	2	-0.00637863	2.59885e-06
2	0	0	0	1	202.429	-0.324448	-0.3249	-0.0112438	2	-0.00638667	3.65311e-06
2	0	0	0	1	203.19	-0.362464	-0.362931	-0.01395	2	-0.00639625	5.06288e-06
2	0	0	1	1	203.95	-0.40048	-0.400973	-0.0172069	2	-0.00640812	6.89949e-06
2	0	0	1	1	204.71	-0.438496	-0.438967	-0.0209312	2	-0.00642264	9.18811e-06
2	0	0	0	1	205.471	-0.476507	-0.476931	-0.0253082	2	-0.00644025	1.20703e-05
2	0	0	0	1	206.231	-0.514528	-0.514982	-0.0306324	2	-0.0064615	1.57751e-05
2	0	0	0	1	206.991	-0.552544	-0.552966	-0.0365795	2	-0.00648706	2.02272e-05
2	0	0	1	1	207.752	-0.59056	-0.59101	-0.0427517	2	-0.00651725	2.52667e-05
2	0	0	1	1	208.512	-0.628576	-0.629013	-0.0492207	2	-0.00655224	3.09605e-05
2	0	0	0	1	209.272	-0.666591	-0.667037	-0.0559284	2	-0.00659227	3.73063e-05
2	0	0	0	1	210.033	-0.704608	-0.705038	-0.0628863	2	-0.00663748	4.43372e-05
2	0	0	0	1	210.793	-0.742624	-0.743039	-0.0697299	2	-0.00668793	5.1812e-05
2	0	0	1	1	211.553	-0.78064	-0.781062	-0.0760141	2	-0.00674346	5.93717e-05
2	0	0	1	1	212.314	-0.818656	-0.819045	-0.0817808	2	-0.00680358	6.69821e-05
2	0	0	0	1	213.074	-0.856675	-0.857063	-0.0863924	2	-0.00686763	7.40437e-05
2	0	0	0	1	213.834	-0.894688	-0.895098	-0.0906596	2	-0.00693507	8.11492e-05
2	0	0	0	1	214.595	-0.932704	-0.933121	-0.0940001	2	-0.00700536	8.77135e-05
2	0	0	1	1	215.355	-0.97072	-0.971154	-0.0968955	2	-0.00707783	9.41005e-05
2	0	0	1	1	216.115	-1.00874	-1.00918	-0.0995028	2	-0.00715251	0.000100416
2	0	0	0	1	216.875	-1.04675	-1.04715	-0.10158	2	-0.00722893	0.00010637
2	0	0	0	1	217.668	-1.08637	-1.08682	-0.103742	2	-0.00731034	0.000112749
2	0	0	0	1	218.428	-1.12438	-1.12482	-0.105743	2	-0.00739003	0.000118942
2	0	0	1	1	219.188	-1.1624	-1.16278	-0.107119	2	-0.00747103	0.000124555
2	0	0	1	1	219.949	-1.20042	-1.20082	-0.109055	2	-0.00755325	0.000130956
2	0	0	1	1	220.709	-1.23843	-1.23882	-0.110045	2	-0.00763661	0.000136326
2	0	0	0	1	221.469	-1.27645	-1.27685	-0.111963	2	-0.00772104	0.00014296
2	0	0	0	1	222.23	-1.31446	-1.31487	-0.113117	2	-0.00780654	0.000148734
2	0	0	1	1	222.99	-1.35248	-1.35289	-0.114599	2	-0.00789318	0.000155039
2	0	0	1	1	223.75	-1.3905	-1.3909	-0.116085	2	-0.00798089	0.000161462
2	0	0	0	1	224.511	-1.42851	-1.42893	-0.118275	2	-0.00807004	0.000169007
2	0	0	0	1	225.271	-1.46653	-1.46692	-0.120588	2	-0.00816098	0.000176893
2	0	0	0	1	226.031	-1.50454	-1.50495	-0.123486	2	-0.00825383	0.00018584
2	0	0	1	1	226.792	-1.54256	-1.54291	-0.126939	2	-0.00834908	0.000195855
2	0	0	1	1	227.552	-1.58058	-1.58096	-0.131565	2	-0.00844729	0.000207999
2	0	0	0	1	228.312	-1.61859	-1.61898	-0.136803	2	-0.00854928	0.000221482
2	0	0	0	1	229.073	-1.65661	-1.65707	-0.143861	2	-0.0086559	0.000238387
2	0	0	0	1	229.833	-1.69462	-1.69504	-0.152656	2	-0.00876858	0.000258758
2	0	0	1	1	230.593	-1.73264	-1.73306	-0.163033	2	-0.00888857	0.000282547
2	0	0	1	1	231.354	-1.77066	-1.77106	-0.175486	2	-0.00901708	0.000310797
2	0	0	0	1	232.114	-1.80867	-1.80907	-0.188506	2	-0.0091552	0.00034102
2	0	0	0	1	232.874	-1.84669	-1.84705	-0.204221	2	-0.00930436	0.000377206
2	0	0	0	1	233.635	-1.8847	-1.88509	-0.219462	2	-0.00946537	0.000413706
2	0	0	1	1	234.395	-1.92272	-1.9231	-0.236551	2	-0.00963878	0.000454912
2	0	0	1	1	235.155	-1.96074	-1.96109	-0.255107	2	-0.0098257	0.000500287
2	0	0	0	1	235.915	-1.99875	-1.9991	-0.275185	2	-0.0100272	0.000550123
2	1	0	1	0	236.652	-1.96444	-1.96482	-0.238778	2	-0.0102154	0.000469157
2	1	0	1	0	237.413	-1.92642	-1.92679	-0.216354	2	-0.0103879	0.000416869
2	1	0	0	0	238.173	-1.88841	-1.88876	-0.197919	2	-0.0105446	0.000373822
2	1	0	0	0	238.933	-1.85039	-1.85077	-0.183028	2	-0.0106891	0.000338742
2	1	0	1	0	239.694	-1.81237	-1.81278	-0.171616	2	-0.0108235	0.000311102
2	1	0	1	0	240.454	-1.77436	-1.77468	-0.160542	2	-0.0109496	0.000284911
2	1	0	1	0	241.214	-1.73634	-1.73673	-0.151874	2	-0.0110683	0.000263763
2	1	0	0	0	241.975	-1.69833	-1.69877	-0.143552	2	-0.0111803	0.000243862
2	1	0	0	0	242.735	-1.66031	-1.66077	-0.135901	2	-0.0112866	0.0002257
2	1	0	1	0	243.495	-1.62229	-1.62269	-0.128824	2	-0.0113871	0.000209041
2	1	0	1	0	244.256	-1.58428	-1.58465	-0.12239	2	-0.0114826	0.000193946
2	1	0	1	0	245.016	-1.54626	-1.54665	-0.115933	2	-0.0115733	0.000179307
2	1	0	0	0	245.776	-1.50825	-1.50864	-0.110563	2	-0.0116593	0.000166799
2	1	0	0	0	246.537	-1.47023	-1.47064	-0.105411	2	-0.0117412	0.000155021
2	1	0	1	0	247.297	-1.43221	-1.43259	-0.1009	2	-0.0118196	0.000144548
2	1	0	1	0	248.057	-1.3942	-1.39461	-0.0971147	2	-0.0118949	0.000135437
2	1	0	1	0	248.818	-1.35618	-1.35658	-0.094101	2	-0.0119676	0.000127656
2	1	0	0	0	249.578	-1.31817	-1.31857	-0.0917978	2	-0.0120383	0.000121042
2	1	0	0	0	250.338	-1.28015	-1.28057	-0.0889837	2	-0.0121069	0.00011395
2	1	0	1	0	251.098	-1.24213	-1.24258	-0.085963	2	-0.0121734	0.000106816
2	1	0	1	0	251.859	-1.20412	-1.20458	-0.0840492	2	-0.012238	0.000101244
2	1	0	1	0	252.619	-1.1661	-1.16654	-0.0822743	2	-0.0123011	9.59766e-05
2	1	0	0	0	253.379	-1.12809	-1.12848	-0.0805956	2	-0.012363	9.09509e-05
2	1	0	0	0	254.14	-1.09007	-1.09048	-0.0789771	2	-0.0124237	8.61234e-05
2	1	0	1	0	254.9	-1.05205	-1.05255	-0.0767061	2	-0.0124829	8.07367e-05
2	1	0	1	0	255.66	-1.01404	-1.01451	-0.0740733	2	-0.0125402	7.51483e-05
2	1	0	0	0	256.395	-0.977322	-0.977787	-0.0705727	3	-0.0125933	6.9005e-05
2	1	0	0	0	257.155	-0.939306	-0.939746	-0.0661688	3	-0.0126453	6.21819e-05
2	1	0	0	0	257.915	-0.90129	-0.901749	-0.0604681	3	-0.0126935	5.45271e-05
2	1	0	1	0	258.676	-0.863274	-0.863759	-0.0537972	3	-0.0127369	4.64678e-05
2	1	0	1	0	259.468	-0.823658	-0.824095	-0.0462247	3	-0.0127766	3.80935e-05
2	1	0	0	0	260.228	-0.785642	-0.786097	-0.0383771	3	-0.0128087	3.01681e-05
2	1	0	0	0	260.989	-0.747626	-0.748088	-0.0306292	3	-0.0128349	2.29133e-05
2	1	0	0	0	261.749	-0.70961	-0.710073	-0.0235228	3	-0.0128554	1.67029e-05
2	1	0	1	0	262.509	-0.671594	-0.672026	-0.0177161	3	-0.012871	1.19057e-05
2	1	0	1	0	263.27	-0.633578	-0.634051	-0.0129629	3	-0.0128825	8.21917e-06
2	1	0	0	0	264.03	-0.595558	-0.595983	-0.00921178	3	-0.0128909	5.49006e-06
2	1	0	0	0	264.79	-0.557546	-0.557951	-0.00631511	3	-0.0128967	3.52352e-06
2	1	0	0	0	265.583	-0.517929	-0.518349	-0.0042044	3	-0.0129008	2.17934e-06
2	1	0	1	0	266.343	-0.479913	-0.48032	-0.00319998	3	-0.0129035	1.53701e-06
2	1	0	1	0	267.103	-0.441897	-0.442282	-0.00270504	3	-0.0129058	1.19639e-06
2	1	0	1	0	267.864	-0.403881	-0.404304	-0.00157324	3	-0.0129074	6.36067e-07
2	1	0	0	0	268.624	-0.365865	-0.366248	0.000482892	3	-0.0129078	-1.76858e-07
2	1	0	0	0	269.384	-0.327849	-0.328226	0.00274711	3	-0.0129066	-9.01673e-07
2	1	0	1	0	270.144	-0.289833	-0.290241	0.00455643	3	-0.0129038	-1.32246e-06
2	1	0	1	0	270.905	-0.251817	-0.252245	0.00585886	3	-0.0128997	-1.47787e-06
2	1	0	1	0	271.665	-0.213801	-0.2142	0.00649624	3	-0.012895	-1.3915e-06
2	1	0	0	0	272.425	-0.175785	-0.176187	0.00681029	3	-0.0128899	-1.19988e-06
2	1	0	0	0	273.186	-0.13777	-0.138153	0.00697685	3	-0.0128846	-9.63871e-07
2	1	0	1	0	273.946	-0.0997535	-0.100173	0.00696243	3	-0.0128793	-6.97447e-07
2	1	0	1	0	274.706	-0.0617376	-0.0621836	0.00699628	3	-0.012874	-4.35054e-07
2	1	0	0	0	275.467	-0.0237227	-0.0241622	0.00698919	3	-0.0128687	-1.68875e-07
2	1	0	0	0	276.227	0.0142944	0.0139246	0.00700349	3	-0.0128633	9.75207e-08
2	1	0	0	0	276.987	0.0523103	0.0519818	0.00700091	3	-0.012858	3.6392e-07
2	1	0	1	0	277.748	0.0903263	0.0899638	0.00696118	3	-0.0128527	6.26254e-07
2	1	0	1	0	278.508	0.128342	0.128052	0.0070322	3	-0.0128474	9.00486e-07
2	1	0	0	0	279.268	0.166361	0.166009	0.00711582	3	-0.012842	1.18129e-06
2	1	0	0	0	280.029	0.204374	0.204033	0.00725211	3	-0.0128365	1.47967e-06
2	1	0	0	0	280.789	0.24239	0.242037	0.00738984	3	-0.0128309	1.78861e-06
2	1	0	1	0	281.549	0.280406	0.280072	0.0075374	3	-0.0128252	2.11101e-06
2	1	0	1	0	282.31	0.318422	0.318076	0.00778684	3	-0.0128194	2.47681e-06
2	1	0	0	0	283.07	0.356438	0.35609	0.00800577	3	-0.0128134	2.85077e-06
2	1	0	0	0	283.83	0.394454	0.394142	0.00819045	3	-0.0128072	3.2282e-06
2	1	0	0	0	284.591	0.43247	0.432147	0.00840611	3	-0.0128009	3.63267e-06
2	1	0	1	0	285.351	0.470486	0.470147	0.00853083	3	-0.0127945	4.01074e-06
2	1	0	1	0	286.111	0.508502	0.508155	0.00875259	3	-0.0127879	4.44767e-06
2	1	0	0	0	286.871	0.546518	0.546172	0.00898623	3	-0.0127811	4.90803e-06
2	1	0	0	0	287.632	0.584534	0.58421	0.00931462	3	-0.0127741	5.4417e-06
2	1	0	0	0	288.392	0.62255	0.622171	0.00978976	3	-0.0127669	6.0909e-06
2	1	0	1	0	289.184	0.662166	0.661858	0.0103245	3	-0.0127589	6.83335e-06
2	1	0	1	0	289.945	0.700182	0.699846	0.0109535	3	-0.0127508	7.66578e-06
2	1	0	0	0	290.705	0.738195	0.737869	0.0117024	3	-0.0127422	8.63484e-06
2	1	0	0	0	291.465	0.776214	0.775889	0.0125225	3	-0.0127329	9.71604e-06
2	1	0	0	0	292.226	0.81423	0.813842	0.0134145	3	-0.012723	1.09173e-05
2	1	0	1	0	292.986	0.852246	0.851948	0.0144428	3	-0.0127124	1.23045e-05
2	1	0	1	0	293.746	0.890262	0.889963	0.0155889	3	-0.0127009	1.38736e-05
2	1	0	0	0	294.507	0.928278	0.927996	0.0168851	3	-0.0126886	1.56693e-05
2	1	0	0	0	295.267	0.966294	0.965993	0.0182149	3	-0.0126752	1.75955e-05
2	1	0	0	0	296.027	1.00431	1.00401	0.0197591	3	-0.0126607	1.98383e-05
2	1	0	1	0	296.788	1.04233	1.04202	0.0214729	3	-0.012645	2.23752e-05
2	1	0	1	0	297.548	1.08034	1.08005	0.0232626	3	-0.012628	2.51248e-05
2	1	0	0	0	298.308	1.11836	1.11806	0.0253525	3	-0.0126095	2.83456e-05
2	1	0	0	0	299.069	1.15637	1.1561	0.027676	3	-0.0125893	3.19963e-05
2	1	0	0	0	299.829	1.19439	1.19409	0.0302141	3	-0.0125673	3.60783e-05
2	0	0	1	0	300.534	1.17038	1.17008	0.021618	3	-0.0125488	2.52947e-05
2	0	0	1	0	301.294	1.13236	1.13206	0.015645	3	-0.0125349	1.77111e-05
2	0	0	1	0	302.054	1.09435	1.09409	0.0121465	3	-0.0125245	1.32894e-05
2	0	0	0	0	302.815	1.05633	1.05603	0.00969962	3	-0.0125162	1.02431e-05
2	0	0	0	0	303.575	1.01832	1.018	0.00792519	3	-0.0125096	8.06787e-06
2	0	0	1	0	304.335	0.9803	0.979975	0.0065475	3	-0.0125042	6.41639e-06
2	0	0	1	0	305.096	0.942284	0.941964	0.00545126	3	-0.0124996	5.13489e-06
2	0	0	1	0	305.888	0.902667	0.902359	0.00449838	3	-0.0124957	4.05915e-06
2	0	0	0	0	306.648	0.864651	0.864293	0.00379229	3	-0.0124926	3.27765e-06
2	0	0	0	0	307.409	0.826635	0.826282	0.00313675	3	-0.01249	2.59184e-06
2	0	0	1	0	308.169	0.788619	0.788314	0.00259745	3	-0.0124878	2.0476e-06
2	0	0	1	0	308.929	0.750603	0.750195	0.00210446	3	-0.0124861	1.57875e-06
2	0	0	1	0	309.69	0.712587	0.712301	0.0016249	3	-0.0124847	1.15742e-06
2	0	0	0	0	310.45	0.674572	0.674254	0.00127038	3	-0.0124836	8.56559e-07
2	0	0	0	0	311.21	0.636556	0.636254	0.000871091	3	-0.0124828	5.54235e-07
2	0	0	1	0	311.97	0.59854	0.598158	0.000509726	3	-0.0124822	3.04897e-07
2	0	0	1	0	312.731	0.560524	0.56017	0.000181733	3	-0.012482	1.01802e-07
2	0	0	1	0	313.491	0.522508	0.522125	-0.000191191	3	-0.012482	-9.98257e-08
2	0	0	0	0	314.251	0.484492	0.48413	-0.000486796	3	-0.0124823	-2.35673e-07
2	0	0	0	0	315.012	0.446476	0.446142	-0.000853061	3	-0.0124828	-3.80586e-07
2	0	0	1	0	315.772	0.40846	0.40809	-0.00112666	3	-0.0124836	-4.59779e-07
2	0	0	1	0	316.532	0.370444	0.370081	-0.00151319	3	-0.0124846	-5.60004e-07
2	0	0	1	0	317.293	0.332428	0.332057	-0.00185247	3	-0.0124859	-6.15125e-07
2	0	0	0	0	318.053	0.294412	0.294029	-0.00216719	3	-0.0124874	-6.37217e-07
2	0	0	0	0	318.813	0.256396	0.256051	-0.00251712	3	-0.0124892	-6.44511e-07
2	0	0	1	0	319.574	0.21838	0.217985	-0.00279242	3	-0.0124912	-6.08706e-07
2	0	0	1	0	320.334	0.180364	0.179992	-0.00314305	3	-0.0124935	-5.65723e-07
2	0	0	1	0	321.094	0.142348	0.141992	-0.00344118	3	-0.012496	-4.88619e-07
2	0	0	0	0	321.855	0.104332	0.103981	-0.00371468	3	-0.0124987	-3.86257e-07
2	0	0	0	0	322.615	0.0663162	0.065925	-0.00399497	3	-0.0125017	-2.63368e-07
2	0	0	1	0	323.375	0.0283002	0.027924	-0.00422323	3	-0.0125048	-1.17929e-07
2	0	0	1	0	324.136	-0.00971572	-0.0101407	-0.00452375	3	-0.0125082	4.5874e-08
2	0	0	0	0	324.896	-0.0477295	-0.0481764	-0.00481615	3	-0.0125117	2.32024e-07
2	0	0	0	0	325.656	-0.0857477	-0.0862075	-0.00513101	3	-0.0125155	4.42331e-07
2	0	0	0	0	326.417	-0.123764	-0.124205	-0.0055027	3	-0.0125196	6.83465e-07
2	0	0	1	0	327.177	-0.16178	-0.162213	-0.00587625	3	-0.0125239	9.53203e-07
2	0	0	1	0	327.937	-0.199796	-0.200234	-0.00633335	3	-0.0125286	1.26815e-06
2	0	0	0	0	328.697	-0.237814	-0.238263	-0.00704954	3	-0.0125337	1.67964e-06
2	0	0	0	0	329.458	-0.275828	-0.276269	-0.00839309	3	-0.0125395	2.31875e-06
2	0	0	0	0	330.25	-0.315444	-0.315918	-0.0103535	3	-0.0125469	3.27088e-06
2	0	0	1	0	331.01	-0.35346	-0.353897	-0.0128938	3	-0.0125558	4.56308e-06
2	0	0	1	0	331.771	-0.391476	-0.391916	-0.0159107	3	-0.0125667	6.23566e-06
2	0	0	1	0	332.531	-0.429492	-0.429915	-0.0194205	3	-0.0125802	8.34919e-06
2	0	0	0	0	333.291	-0.467508	-0.467982	-0.0234023	3	-0.0125965	1.09519e-05
2	0	0	0	0	334.052	-0.505524	-0.505998	-0.0283768	3	-0.0126162	1.43586e-05
2	0	0	1	0	334.812	-0.54354	-0.543972	-0.034257	3	-0.0126401	1.86349e-05
2	0	0	1	0	335.572	-0.581556	-0.581998	-0.0404585	3	-0.0126685	2.35468e-05
2	0	0	1	0	336.333	-0.619572	-0.62004	-0.0469401	3	-0.0127017	2.91047e-05
2	0	0	0	0	337.093	-0.657588	-0.658018	-0.0536486	3	-0.0127399	3.53017e-05
2	0	0	0	0	337.853	-0.695604	-0.696078	-0.0606779	3	-0.0127834	4.22365e-05
2	0	0	1	0	338.614	-0.73362	-0.734074	-0.0677523	3	-0.0128323	4.97352e-05
2	0	0	1	0	339.374	-0.771636	-0.772052	-0.0742342	3	-0.0128864	5.73127e-05
2	0	0	0	0	340.134	-0.809649	-0.810059	-0.0801457	3	-0.0129452	6.49227e-05
2	0	0	0	0	340.895	-0.847668	-0.848051	-0.0851127	3	-0.0130081	7.21798e-05
2	0	0	0	0	341.655	-0.885684	-0.886106	-0.0893068	3	-0.0130745	7.91352e-05
2	0	0	1	0	342.415	-0.9237	-0.924106	-0.0930169	3	-0.0131438	8.59574e-05
2	0	0	1	0	343.176	-0.961716	-0.962126	-0.096205	3	-0.0132157	9.25613e-05
2	0	0	0	0	343.936	-0.999732	-1.00018	-0.0985088	3	-0.0132897	9.85263e-05
2	0	0	0	0	344.696	-1.03775	-1.03815	-0.10099	3	-0.0133656	0.000104842
2	0	0	0	0	345.457	-1.07576	-1.07615	-0.102737	3	-0.0134432	0.000110561
2	0	0	1	0	346.249	-1.11538	-1.11578	-0.104972	3	-0.0135256	0.000117125
2	0	0	1	0	347.009	-1.1534	-1.1538	-0.106344	3	-0.0136061	0.0001227
2	0	0	1	0	347.77	-1.19141	-1.19181	-0.108139	3	-0.0136878	0.000128881
2	0	0	0	0	348.53	-1.22943	-1.2298	-0.10992	3	-0.0137707	0.00013518
2	0	0	0	0	349.29	-1.26744	-1.26785	-0.111076	3	-0.0138547	0.000140827
2	0	0	1	0	350.05	-1.30546	-1.30588	-0.112464	3	-0.0139398	0.000146864
2	0	0	1	0	350.811	-1.34348	-1.34387	-0.113754	3	-0.0140259	0.000152871
2	0	0	1	0	351.571	-1.38149	-1.38192	-0.115676	3	-0.0141132	0.000159855
2	0	0	0	0	352.331	-1.41951	-1.41987	-0.117657	3	-0.0142018	0.000167059
2	0	0	0	0	353.092	-1.45752	-1.4579	-0.11933	3	-0.0142921	0.000173972
2	0	0	1	0	353.852	-1.49554	-1.49593	-0.122344	3	-0.0143842	0.000183018
2	0	0	1	0	354.612	-1.53356	-1.53397	-0.125812	3	-0.0144784	0.000192991
2	0	0	0	0	355.373	-1.57157	-1.57195	-0.130111	3	-0.0145757	0.000204528
2	0	0	0	0	356.133	-1.60959	-1.60995	-0.135393	3	-0.0146765	0.000217975
2	0	0	0	0	356.893	-1.6476	-1.64801	-0.141565	3	-0.0147818	0.0002333
2	0	0	1	0	357.654	-1.68562	-1.68604	-0.150245	3	-0.0148927	0.00025332
2	0	0	1	0	358.414	-1.72364	-1.72406	-0.160029	3	-0.0150105	0.0002759
2	0	0	0	0	359.174	-1.76165	-1.76204	-0.171502	3	-0.0151366	0.000302193
2	0	0	0	0	359.935	-1.79967	-1.80006	-0.184848	3	-0.0152721	0.000332738
2	0	0	0	0	360.695	-1.83768	-1.83806	-0.199687	3	-0.0154183	0.000367038
2	0	0	1	0	361.455	-1.8757	-1.87607	-0.215496	3	-0.0155759	0.000404286
2	0	0	1	0	362.216	-1.91372	-1.91409	-0.231322	3	-0.0157459	0.00044277
2	0	0	0	0	362.976	-1.95174	-1.95215	-0.24954	3	-0.015929	0.000487139
2	0	0	0	0	363.736	-1.98975	-1.99014	-0.270004	3	-0.0161264	0.000537346
2	1	0	1	1	364.473	-1.97344	-1.97379	-0.245325	3	-0.0163195	0.000484219
2	1	0	0	1	365.233	-1.93542	-1.93579	-0.219459	3	-0.0164957	0.000424826
2	1	0	0	1	365.994	-1.89741	-1.8978	-0.202007	3	-0.0166558	0.000383369
2	1	0	1	1	366.754	-1.85939	-1.85979	-0.186464	3	-0.0168031	0.000346784
2	1	0	1	1	367.514	-1.82138	-1.82178	-0.173848	3	-0.0169401	0.000316712
2	1	0	1	1	368.275	-1.78336	-1.78377	-0.163943	3	-0.0170683	0.000292436
2	1	0	0	1	369.035	-1.74534	-1.74572	-0.153838	3	-0.0171889	0.000268557
2	1	0	0	1	369.795	-1.70733	-1.70777	-0.145727	3	-0.0173027	0.000248869
2	1	0	1	1	370.556	-1.66931	-1.66976	-0.137838	3	-0.0174103	0.000230155
2	1	0	1	1	371.316	-1.6313	-1.63169	-0.130849	3	-0.0175124	0.000213505
2	1	0	1	1	372.076	-1.59328	-1.59365	-0.124165	3	-0.0176092	0.000197875
2	1	0	0	1	372.837	-1.55527	-1.55568	-0.117741	3	-0.0177011	0.000183169
2	1	0	0	1	373.597	-1.51725	-1.51765	-0.111997	3	-0.0177883	0.000169972
2	1	0	1	1	374.357	-1.47923	-1.47961	-0.106301	3	-0.0178712	0.000157285
2	1	0	1	1	375.118	-1.44122	-1.4416	-0.102276	3	-0.0179505	0.000147441
2	1	0	1	1	375.878	-1.4032	-1.40364	-0.0982556	3	-0.0180266	0.000137915
2	1	0	0	1	376.638	-1.36519	-1.36558	-0.0950794	3	-0.0181	0.000129839
2	1	0	0	1	377.399	-1.32717	-1.32758	-0.092434	3	-0.0181712	0.000122713
2	1	0	1	1	378.159	-1.28915	-1.28957	-0.0896547	3	-0.0182404	0.000115616
2	1	0	1	1	378.919	-1.25114	-1.25155	-0.0867624	3	-0.0183075	0.000108588
2	1	0	1	1	379.68	-1.21312	-1.21355	-0.0843276	3	-0.0183725	0.000102336
2	1	0	0	1	380.44	-1.17511	-1.17547	-0.0826196	3	-0.0184358	9.7117e-05
2	1	0	0	1	381.2	-1.13709	-1.13749	-0.0809546	3	-0.018498	9.20854e-05
2	1	0	1	1	381.96	-1.09907	-1.09952	-0.0791984	3	-0.0185588	8.70803e-05
2	1	0	1	1	382.721	-1.06106	-1.06152	-0.0774402	3	-0.0186184	8.22041e-05
2	1	0	1	1	383.481	-1.02304	-1.02349	-0.0747473	3	-0.0186762	7.65034e-05
2	1	0	0	1	384.215	-0.986326	-0.98674	-0.071542	4	-0.0187298	7.05933e-05
2	1	0	0	1	384.976	-0.94831	-0.948805	-0.0671203	4	-0.0187826	6.36841e-05
2	1	0	1	1	385.736	-0.910294	-0.910763	-0.0620424	4	-0.0188317	5.65059e-05
2	1	0	1	1	386.496	-0.872278	-0.872757	-0.0556772	4	-0.0188765	4.85927e-05
2	1	0	0	1	387.257	-0.834262	-0.834732	-0.0484313	4	-0.0189161	4.04272e-05
2	1	0	0	1	388.049	-0.794646	-0.795068	-0.0403078	4	-0.0189512	3.20474e-05
2	1	0	0	1	388.809	-0.75663	-0.757091	-0.032427	4	-0.0189788	2.45502e-05
2	1	0	1	1	389.57	-0.718614	-0.719013	-0.0253448	4	-0.0190007	1.82232e-05
2	1	0	1	1	390.33	-0.680598	-0.68103	-0.0189483	4	-0.0190174	1.29043e-05
2	1	0	0	1	391.09	-0.642584	-0.643024	-0.013911	4	-0.0190298	8.94509e-06
2	1	0	0	1	391.851	-0.604566	-0.604989	-0.00994939	4	-0.0190388	6.01927e-06
2	1	0	0	1	392.611	-0.56655	-0.566943	-0.00689919	4	-0.0190451	3.91144e-06
2	1	0	1	1	393.371	-0.528534	-0.528961	-0.00467162	4	-0.0190494	2.47111e-06
2	1	0	1	1	394.164	-0.488917	-0.489339	-0.00332547	4	-0.0190524	1.62728e-06
2	1	0	1	1	394.924	-0.450901	-0.451338	-0.00279252	4	-0.0190547	1.26037e-06
2	1	0	0	1	395.684	-0.412885	-0.413303	-0.00181765	4	-0.0190565	7.5124e-07
2	1	0	0	1	396.445	-0.374869	-0.37529	2.19908e-05	4	-0.0190572	-8.25293e-09
2	1	0	1	1	397.205	-0.336853	-0.337214	0.00225463	4	-0.0190563	-7.60292e-07
2	1	0	1	1	397.965	-0.298837	-0.299191	0.00416729	4	-0.0190538	-1.24681e-06
2	1	0	1	1	398.726	-0.260821	-0.261217	0.00549752	4	-0.0190501	-1.43605e-06
2	1	0	0	1	399.486	-0.222805	-0.223218	0.00633528	4	-0.0190456	-1.41415e-06
2	1	0	0	1	400.246	-0.184789	-0.185216	0.00673966	4	-0.0190406	-1.24829e-06
2	1	0	1	1	401.006	-0.146773	-0.147195	0.00696307	4	-0.0190353	-1.02493e-06
2	1	0	1	1	401.767	-0.108757	-0.109162	0.00698065	4	-0.01903	-7.62023e-07
2	1	0	1	1	402.527	-0.0707414	-0.0711611	0.00700045	4	-0.0190247	-4.98159e-07
2	1	0	0	1	403.287	-0.0327254	-0.0331367	0.0070081	4	-0.0190193	-2.32226e-07
2	1	0	0	1	404.048	0.00529059	0.00493007	0.00699045	4	-0.019014	3.44634e-08
2	1	0	1	1	404.808	0.0433065	0.0429915	0.0069559	4	-0.0190087	2.99045e-07
2	1	0	1	1	405.568	0.0813225	0.0809968	0.00693697	4	-0.0190034	5.61872e-07
2	1	0	0	1	406.329	0.119335	0.118944	0.00695955	4	-0.0189981	8.27799e-07
2	1	0	0	1	407.089	0.157354	0.156965	0.00708045	4	-0.0189928	1.11138e-06
2	1	0	0	1	407.849	0.19537	0.195047	0.0071558	4	-0.0189874	1.39571e-06
2	1	0	1	1	408.61	0.233386	0.233104	0.00730822	4	-0.0189819	1.70357e-06
2	1	0	1	1	409.37	0.271402	0.27107	0.00744842	4	-0.0189763	2.01904e-06
2	1	0	0	1	410.13	0.309418	0.309064	0.00759925	4	-0.0189705	2.34865e-06
2	1	0	0	1	410.891	0.347434	0.347063	0.00785964	4	-0.0189646	2.72779e-06
2	1	0	0	1	411.651	0.38545	0.385134	0.00803569	4	-0.0189586	3.09482e-06
2	1	0	1	1	412.411	0.423466	0.423163	0.00825059	4	-0.0189523	3.49135e-06
2	1	0	1	1	413.172	0.461482	0.461163	0.00843658	4	-0.018946	3.89064e-06
2	1	0	0	1	413.932	0.499501	0.499126	0.00857161	4	-0.0189395	4.27832e-06
2	1	0	0	1	414.692	0.537514	0.537209	0.00883595	4	-0.0189329	4.74675e-06
2	1	0	0	1	415.453	0.57553	0.575206	0.00910564	4	-0.0189261	5.23762e-06
2	1	0	1	1	416.213	0.613546	0.613186	0.00953566	4	-0.018919	5.84714e-06
2	1	0	1	1	416.973	0.651562	0.651268	0.0100344	4	-0.0189115	6.5351e-06
2	1	0	1	1	417.766	0.691179	0.69089	0.0106723	4	-0.0189033	7.37336e-06
2	1	0	0	1	418.526	0.729194	0.72888	0.0113186	4	-0.0188949	8.24989e-06
2	1	0	0	1	419.286	0.76721	0.766883	0.0121859	4	-0.0188859	9.34514e-06
2	1	0	1	1	420.046	0.805226	0.804953	0.0130883	4	-0.0188763	1.05354e-05
2	1	0	1	1	420.807	0.843242	0.842915	0.0140437	4	-0.018866	1.18376e-05
2	1	0	1	1	421.567	0.881258	0.880907	0.0151789	4	-0.0188548	1.33712e-05
2	1	0	0	1	422.327	0.919274	0.918963	0.0163483	4	-0.0188428	1.50235e-05
2	1	0	0	1	423.088	0.95729	0.956991	0.0177615	4	-0.0188298	1.69976e-05
2	1	0	1	1	423.848	0.995306	0.99499	0.0193218	4	-0.0188157	1.9225e-05
2	1	0	1	1	424.608	1.03332	1.03301	0.0209139	4	-0.0188004	2.16043e-05
2	1	0	0	1	425.369	1.07133	1.07102	0.0227097	4	-0.0187838	2.43225e-05
2	1	0	0	1	426.129	1.10935	1.10908	0.0245694	4	-0.0187658	2.72493e-05
2	1	0	0	1	426.889	1.14737	1.14711	0.0268294	4	-0.0187462	3.07763e-05
2	1	0	1	1	427.65	1.18539	1.18511	0.0294175	4	-0.0187248	3.4863e-05
2	0	0	1	1	428.354	1.17938	1.17916	0.023418	4	-0.0187052	2.76135e-05
2	0	0	1	1	429.115	1.14137	1.14108	0.0166432	4	-0.0186903	1.89911e-05
2	0	0	0	1	429.875	1.10335	1.10307	0.0126803	4	-0.0186793	1.39873e-05
2	0	0	0	1	430.635	1.06534	1.06501	0.0100789	4	-0.0186707	1.07341e-05
2	0	0	1	1	431.396	1.02732	1.02706	0.00815093	4	-0.0186638	8.37153e-06
2	0	0	1	1	432.156	0.989304	0.98904	0.0067426	4	-0.0186582	6.6687e-06
2	0	0	1	1	432.916	0.951288	0.951054	0.00558802	4	-0.0186536	5.31451e-06
2	0	0	0	1	433.709	0.911671	0.911392	0.00461854	4	-0.0186496	4.2093e-06
2	0	0	0	1	434.469	0.873655	0.873353	0.00381858	4	-0.0186464	3.33497e-06
2	0	0	1	1	435.229	0.835639	0.835301	0.00322242	4	-0.0186438	2.69169e-06
2	0	0	1	1	435.99	0.797623	0.797297	0.00264416	4	-0.0186415	2.10818e-06
2	0	0	1	1	436.75	0.759607	0.759257	0.00214679	4	-0.0186397	1.62997e-06
2	0	0	0	1	437.51	0.721591	0.721257	0.0016901	4	-0.0186383	1.21899e-06
2	0	0	0	1	438.271	0.683575	0.683218	0.00127305	4	-0.0186372	8.69768e-07
2	0	0	1	1	439.031	0.645559	0.645224	0.000916223	4	-0.0186364	5.9117e-07
2	0	0	1	1	439.791	0.607543	0.607213	0.00053702	4	-0.0186358	3.26085e-07
2	0	0	1	1	440.552	0.569527	0.56915	0.000190293	4	-0.0186356	1.08305e-07
2	0	0	0	1	441.312	0.531511	0.531121	-0.000161969	4	-0.0186356	-8.60249e-08
2	0	0	0	1	442.072	0.493495	0.493135	-0.000504606	4	-0.0186359	-2.48839e-07
2	0	0	1	1	442.832	0.45548	0.455138	-0.000790217	4	-0.0186364	-3.59658e-07
2	0	0	1	1	443.593	0.417464	0.417092	-0.00114366	4	-0.0186371	-4.7701e-07
2	0	0	1	1	444.353	0.379448	0.379064	-0.00144241	4	-0.0186381	-5.46767e-07
2	0	0	0	1	445.113	0.341432	0.341072	-0.00179458	4	-0.0186394	-6.12081e-07
2	0	0	0	1	445.874	0.303416	0.303056	-0.00211512	4	-0.0186409	-6.41001e-07
2	0	0	1	1	446.634	0.2654	0.265025	-0.00242012	4	-0.0186426	-6.41393e-07
2	0	0	1	1	447.394	0.227384	0.227032	-0.00272555	4	-0.0186446	-6.18786e-07
2	0	0	1	1	448.155	0.189368	0.188967	-0.00301659	4	-0.0186468	-5.70036e-07
2	0	0	0	1	448.915	0.151352	0.150944	-0.00335704	4	-0.0186492	-5.06725e-07
2	0	0	0	1	449.675	0.113336	0.112917	-0.00359852	4	-0.0186519	-4.06335e-07
2	0	0	1	1	450.436	0.07532	0.0749227	-0.00388611	4	-0.0186547	-2.91158e-07
2	0	0	1	1	451.196	0.037304	0.0369291	-0.00417928	4	-0.0186578	-1.54337e-07
2	0	0	1	1	451.956	-0.000711933	-0.00111543	-0.00442632	4	-0.0186611	4.93726e-09
2	0	0	0	1	452.717	-0.0387279	-0.0391875	-0.00471846	4	-0.0186646	1.84905e-07
2	0	0	0	1	453.477	-0.0767439	-0.0772257	-0.00501542	4	-0.0186683	3.87319e-07
2	0	0	1	1	454.237	-0.11476	-0.115174	-0.00535017	4	-0.0186722	6.16199e-07
2	0	0	1	1	454.998	-0.152776	-0.153201	-0.00571214	4	-0.0186765	8.75106e-07
2	0	0	0	1	455.758	-0.190787	-0.191249	-0.0060481	4	-0.0186809	1.15669e-06
2	0	0	0	1	456.518	-0.228808	-0.229278	-0.0067679	4	-0.0186858	1.55173e-06
2	0	0	0	1	457.279	-0.266824	-0.267287	-0.00787536	4	-0.0186914	2.10498e-06
2	0	0	1	1	458.039	-0.30484	-0.305305	-0.00962277	4	-0.018698	2.93788e-06
2	0	0	1	1	458.831	-0.344456	-0.344895	-0.0120228	4	-0.0187066	4.1466e-06
2	0	0	1	1	459.592	-0.382472	-0.382955	-0.0148871	4	-0.0187168	5.70108e-06
2	0	0	0	1	460.352	-0.420488	-0.420928	-0.0181127	4	-0.0187293	7.62414e-06
2	0	0	0	1	461.112	-0.458504	-0.458933	-0.0219181	4	-0.0187445	1.0059e-05
2	0	0	1	1	461.872	-0.49652	-0.49697	-0.0264944	4	-0.0187629	1.31669e-05
2	0	0	1	1	462.633	-0.534536	-0.534961	-0.0320225	4	-0.0187852	1.71308e-05
2	0	0	1	1	463.393	-0.572552	-0.57296	-0.0382835	4	-0.0188119	2.19349e-05
2	0	0	0	1	464.153	-0.610568	-0.611006	-0.0448364	4	-0.0188435	2.73954e-05
2	0	0	0	1	464.914	-0.648584	-0.649037	-0.0515715	4	-0.0188802	3.34718e-05
2	0	0	1	1	465.674	-0.6866	-0.687037	-0.0587012	4	-0.0189221	4.03299e-05
2	0	0	1	1	466.434	-0.724616	-0.725078	-0.0657623	4	-0.0189694	4.76828e-05
2	0	0	1	1	467.195	-0.762632	-0.763055	-0.0727137	4	-0.0190221	5.54846e-05
2	0	0	0	1	467.955	-0.800648	-0.801088	-0.0787038	4	-0.0190798	6.30486e-05
2	0	0	0	1	468.715	-0.838664	-0.839064	-0.083931	4	-0.0191417	7.04235e-05
2	0	0	1	1	469.476	-0.87668	-0.877113	-0.0884004	4	-0.0192073	7.75372e-05
2	0	0	1	1	470.236	-0.914696	-0.91513	-0.0919212	4	-0.019276	8.41199e-05
2	0	0	1	1	470.996	-0.952712	-0.95317	-0.0953046	4	-0.0193472	9.08414e-05
2	0	0	0	1	471.757	-0.990728	-0.991161	-0.0978059	4	-0.0194207	9.69415e-05
2	0	0	0	1	472.517	-1.02874	-1.02918	-0.100263	4	-0.0194961	0.000103188
2	0	0	1	1	473.277	-1.06676	-1.06715	-0.10247	4	-0.0195732	0.000109352
2	0	0	1	1	474.07	-1.10638	-1.10682	-0.10442	4	-0.0196552	0.000115574
2	0	0	1	1	474.83	-1.14439	-1.14478	-0.10608	4	-0.0197353	0.000121439
2	0	0	0	1	475.59	-1.18241	-1.18282	-0.10788	4	-0.0198166	0.000127602
2	0	0	0	1	476.351	-1.22042	-1.22081	-0.108907	4	-0.0198992	0.000132954
2	0	0	1	1	477.111	-1.25844	-1.25883	-0.110796	4	-0.0199828	0.000139473
2	0	0	1	1	477.871	-1.29646	-1.29685	-0.112096	4	-0.0200675	0.000145371
2	0	0	1	1	478.632	-1.33447	-1.3349	-0.113235	4	-0.0201533	0.000151157
2	0	0	0	1	479.392	-1.37249	-1.37288	-0.115096	4	-0.0202401	0.000158013
2	0	0	0	1	480.152	-1.4105	-1.41091	-0.117003	4	-0.0203283	0.00016508
2	0	0	1	1	480.912	-1.44852	-1.4489	-0.11928	4	-0.0204179	0.000172824
2	0	0	1	1	481.673	-1.48654	-1.48691	-0.121533	4	-0.0205094	0.000180708
2	0	0	1	1	482.433	-1.52455	-1.52496	-0.124854	4	-0.0206031	0.000190397
2	0	0	0	1	483.193	-1.56257	-1.56295	-0.128478	4	-0.0206994	0.000200804
2	0	0	0	1	483.954	-1.60058	-1.60096	-0.133523	4	-0.020799	0.000213764
2	0	0	1	1	484.714	-1.6386	-1.63895	-0.14023	4	-0.0209031	0.000229831
2	0	0	1	1	485.474	-1.67662	-1.67709	-0.147933	4	-0.0210126	0.000248098
2	0	0	1	1	486.235	-1.71463	-1.71507	-0.157711	4	-0.0211287	0.000270485
2	0	0	0	1	486.995	-1.75265	-1.75306	-0.168356	4	-0.0212525	0.000295137
2	0	0	0	1	487.755	-1.79066	-1.79105	-0.181411	4	-0.0213855	0.000324915
2	0	0	1	1	488.516	-1.82868	-1.82907	-0.196208	4	-0.0215289	0.000358878
2	0	0	1	1	489.276	-1.8667	-1.86711	-0.210376	4	-0.0216836	0.000392795
2	0	0	0	1	490.036	-1.90471	-1.90509	-0.227458	4	-0.02185	0.000433327
2	0	0	0	1	490.797	-1.94273	-1.94308	-0.243846	4	-0.0220291	0.000473813
2	0	0	0	1	491.557	-1.98074	-1.98109	-0.262803	4	-0.0222219	0.000520638
2	1	0	0	0	492.294	-1.98244	-1.98279	-0.251073	4	-0.0224169	0.000497823
2	1	0	0	0	493.054	-1.94443	-1.94481	-0.224669	4	-0.0225967	0.000436937
2	1	0	1	0	493.814	-1.90641	-1.90679	-0.203995	4	-0.022759	0.000388975
2	1	0	1	0	494.575	-1.8684	-1.86878	-0.188955	4	-0.0229083	0.000353115
2	1	0	1	0	495.335	-1.83038	-1.83079	-0.175886	4	-0.0230466	0.00032201
2	1	0	0	0	496.095	-1.79236	-1.79274	-0.165384	4	-0.0231762	0.000296491
2	1	0	0	0	496.856	-1.75435	-1.75474	-0.155731	4	-0.0232981	0.000273267
2	1	0	1	0	497.616	-1.71633	-1.71675	-0.146743	4	-0.0234131	0.000251922
2	1	0	1	0	498.376	-1.67832	-1.67874	-0.139551	4	-0.0235218	0.00023427
2	1	0	1	0	499.137	-1.6403	-1.64074	-0.132374	4	-0.0236252	0.000217192
2	1	0	0	0	499.897	-1.60228	-1.60271	-0.125453	4	-0.0237231	0.000201065
2	1	0	0	0	500.657	-1.56427	-1.56466	-0.118841	4	-0.023816	0.000185946
2	1	0	1	0	501.418	-1.52625	-1.52667	-0.113197	4	-0.0239042	0.000172815
2	1	0	1	0	502.178	-1.48824	-1.48861	-0.107928	4	-0.0239882	0.000160663
2	1	0	1	0	502.938	-1.45022	-1.45064	-0.103285	4	-0.0240684	0.000149829
2	1	0	0	0	503.699	-1.4122	-1.41258	-0.0992866	4	-0.0241452	0.000140251
2	1	0	0	0	504.459	-1.37419	-1.37455	-0.0959844	4	-0.0242194	0.000131935
2	1	0	1	0	505.219	-1.33617	-1.33659	-0.0929985	4	-0.0242911	0.000124301
2	1	0	1	0	505.98	-1.29816	-1.29856	-0.090444	4	-0.0243608	0.000117447
2	1	0	1	0	506.74	-1.26014	-1.26055	-0.0874264	4	-0.0244284	0.000110205
2	1	0	0	0	507.5	-1.22213	-1.22257	-0.084982	4	-0.0244937	0.000103897
2	1	0	0	0	508.261	-1.18411	-1.18451	-0.0827054	4	-0.0245575	9.79657e-05
2	1	0	1	0	509.021	-1.14609	-1.14655	-0.0814674	4	-0.0246199	9.34063e-05
2	1	0	1	0	509.781	-1.10808	-1.10849	-0.0798707	4	-0.0246812	8.85357e-05
2	1	0	1	0	510.542	-1.07006	-1.07049	-0.0777811	4	-0.0247412	8.32639e-05
2	1	0	0	0	511.302	-1.03205	-1.03246	-0.0754365	4	-0.0247994	7.78849e-05
2	1	0	0	0	511.942	-0.999982	-1.00038	-0.0728173	4	-0.0248469	7.2845e-05