File: RDE_data/02262020_MnO2_RDE_50mVs_100rpm_ExtendedBounds_IncreasedFlow_C04.mpt
EC-Lab ASCII FILE
Nb header lines : 56

Cyclic Voltammetry

Run on channel : 4 (SN 35517)
User : CESL
CE vs. WE compliance from -10 V to 10 V
Electrode connection : standard
Ewe ctrl range : min = -2.50 V, max = 2.50 V
Safety Limits :
	Do not start on E overload
Acquisition started on : 02/26/2020 14:32:19
Technique started on : 02/26/2020 14:32:19
Saved on :
	File : 02262020_MnO2_RDE_50mVs_100rpm_ExtendedBounds_IncreasedFlow_C04.mpr
	Directory : C:\Users\CESL\Documents\EC-Lab\Data\Undergrad\Katelyn\EChem\
	Host : 169.254.217.189
Device : VSP (SN 1724172417241724)
Address : USB
EC-Lab for windows v11.16 (software)
Internet server v11.16 (firmware)
Command interpretor v11.16 (firmware)
Electrode material : Au/Pd
Initial state :
Electrolyte : NaCl (0.2M)
Comments : Fe(CN)63-/Fe(CN)64- 5.10-3 M
Reference electrode : SCE Saturated Calomel Electrode (0.241 V)
Electrode surface area : 0.001 cm²
Characteristic mass : 0.001 g
Equivalent Weight : 0.000 g/eq.
Density : 0.000 g/cm3
Cycle Definition : Charge/Discharge alternance
Ei (V)              -1.000
vs.                 Ref
dE/dt               50.000
dE/dt unit          mV/s
E1 (V)              1.200
vs.                 Ref
Step percent        50
N                   10
E range min (V)     -2.500
E range max (V)     2.500
I Range             Auto
I Range min         Unset
I Range max         Unset
I Range init        Unset
Bandwidth           5
E2 (V)              -2.000
vs.                 Ref
nc cycles           3
Reverse Scan        1
Ef (V)              -1.000
vs.                 Ref

mode	ox/red	error	control changes	counter inc.	time/s	control/V	Ewe/V	<I>/mA	cycle number	(Q-Qo)/C	P/W
2	1	0	0	0	0.000000000000000E+000	-0.99698	-0.997573	-0.20956	1	0.0000000E+000	0.000209052
2	1	0	1	0	0.7512	-0.959415	-0.959851	-0.0501889	1	-6.63383e-05	4.81739e-05
2	1	0	1	0	1.5436	-0.919798	-0.920181	-0.0343861	1	-9.83887e-05	3.16414e-05
2	1	0	0	0	2.3038	-0.881782	-0.882213	-0.0289305	1	-0.000122207	2.55229e-05
2	1	0	0	0	3.0642	-0.843766	-0.844195	-0.026153	1	-0.00014303	2.20782e-05
2	1	0	0	0	3.8246	-0.80575	-0.806183	-0.023214	1	-0.000161834	1.87147e-05
2	1	0	1	0	4.5848	-0.767734	-0.768168	-0.0202218	1	-0.000178324	1.55338e-05
2	1	0	1	0	5.3452	-0.729718	-0.730144	-0.0170099	1	-0.000192436	1.24197e-05
2	1	0	0	0	6.1054	-0.691702	-0.692137	-0.014021	1	-0.000204173	9.70445e-06
2	1	0	0	0	6.8658	-0.653686	-0.654101	-0.0112365	1	-0.000213736	7.34983e-06
2	1	0	0	0	7.6262	-0.61567	-0.61609	-0.00862792	1	-0.000221226	5.31557e-06
2	1	0	1	0	8.3864	-0.577654	-0.578108	-0.00651693	1	-0.000226933	3.76749e-06
2	1	0	1	0	9.1628	-0.538838	-0.53927	-0.0046348	1	-0.000231204	2.49941e-06
2	1	0	0	0	9.9391	-0.500021	-0.500452	-0.00328022	1	-0.000234208	1.64159e-06
2	1	0	0	0	10.6994	-0.462006	-0.462431	-0.00274924	1	-0.000236459	1.27133e-06
2	1	0	0	0	11.4598	-0.42399	-0.424411	-0.0020855	1	-0.000238318	8.85107e-07
2	1	0	1	0	12.22	-0.385974	-0.386424	-0.00087452	1	-0.00023948	3.37936e-07
2	1	0	1	0	12.9804	-0.347958	-0.348365	0.000830377	1	-0.000239482	-2.89274e-07
2	1	0	0	0	13.7407	-0.309937	-0.310332	0.00251155	1	-0.00023819	-7.79415e-07
2	1	0	0	0	14.501	-0.271926	-0.272329	0.00395982	1	-0.000235684	-1.07837e-06
2	1	0	0	0	15.2614	-0.23391	-0.234315	0.00505028	1	-0.00023221	-1.18336e-06
2	1	0	1	0	16.0216	-0.195894	-0.196243	0.00558525	1	-0.000228138	-1.09607e-06
2	1	0	1	0	16.782	-0.157878	-0.158252	0.00600331	1	-0.000223706	-9.50034e-07
2	1	0	0	0	17.5422	-0.119862	-0.120278	0.00614207	1	-0.000219079	-7.38757e-07
2	1	0	0	0	18.3026	-0.081846	-0.0822528	0.0062628	1	-0.000214335	-5.15133e-07
2	1	0	0	0	19.063	-0.0438301	-0.0442624	0.00634838	1	-0.000209527	-2.80995e-07
2	1	0	1	0	19.8232	-0.00581408	-0.00623697	0.00634057	1	-0.000204685	-3.95459e-08
2	1	0	1	0	20.5836	0.0322019	0.031902	0.00637511	1	-0.000199826	2.03379e-07
2	1	0	0	0	21.3438	0.0702178	0.0698924	0.00637048	1	-0.000194975	4.45248e-07
2	1	0	0	0	22.1042	0.108234	0.107899	0.00641175	1	-0.000190108	6.9182e-07
2	1	0	0	0	22.8646	0.14625	0.14593	0.00649122	1	-0.0001852	9.47267e-07
2	1	0	1	0	23.6248	0.184266	0.183928	0.00660889	1	-0.000180198	1.21556e-06
2	1	0	1	0	24.3852	0.222282	0.221963	0.00677447	1	-0.000175099	1.50368e-06
2	1	0	0	0	25.1454	0.260298	0.259959	0.00690481	1	-0.000169889	1.79497e-06
2	1	0	0	0	25.9058	0.298314	0.297933	0.00711901	1	-0.000164547	2.12099e-06
2	1	0	0	0	26.6662	0.33633	0.335981	0.00731248	1	-0.000159059	2.45686e-06
2	1	0	1	0	27.4264	0.374345	0.374012	0.00753808	1	-0.000153401	2.81933e-06
2	1	0	1	0	28.1868	0.412361	0.41203	0.00775169	1	-0.000147575	3.19393e-06
2	1	0	0	0	28.947	0.450377	0.450048	0.00792511	1	-0.000141596	3.56668e-06
2	1	0	0	0	29.7074	0.488393	0.488092	0.0081638	1	-0.000135473	3.98469e-06
2	1	0	0	0	30.4678	0.526409	0.52607	0.00832186	1	-0.000129203	4.37788e-06
2	1	0	1	0	31.228	0.564425	0.564125	0.00863956	1	-0.000122751	4.87379e-06
2	1	0	1	0	31.9884	0.602441	0.602136	0.00900842	1	-0.000116044	5.42429e-06
2	1	0	0	0	32.7486	0.640457	0.640144	0.00949553	1	-0.000109004	6.07851e-06
2	1	0	0	0	33.509	0.678473	0.678171	0.0100739	1	-0.000101564	6.83185e-06
2	1	0	0	0	34.3014	0.71809	0.717718	0.0107411	1	-9.33018e-05	7.70907e-06
2	1	0	1	0	35.0616	0.756106	0.755785	0.01157	1	-8.47969e-05	8.74443e-06
2	1	0	1	0	35.822	0.794122	0.793802	0.012426	1	-7.56595e-05	9.86379e-06
2	1	0	0	0	36.5822	0.832138	0.831853	0.0134259	1	-6.57947e-05	1.11683e-05
2	1	0	0	0	37.3426	0.870154	0.869765	0.0145773	1	-5.51217e-05	1.26788e-05
2	1	0	0	0	38.103	0.90817	0.907871	0.0157618	1	-4.35576e-05	1.43097e-05
2	1	0	1	0	38.8632	0.946186	0.945875	0.0171743	1	-3.10051e-05	1.62448e-05
2	1	0	1	0	39.6236	0.984201	0.983919	0.0186192	1	-1.7378e-05	1.83198e-05
2	1	0	0	0	40.3838	1.02222	1.02198	0.0202839	1	-2.57198e-06	2.07298e-05
2	1	0	0	0	41.1442	1.06023	1.05994	0.022029	1	1.35441e-05	2.33494e-05
2	1	0	0	0	41.9046	1.09825	1.09794	0.0239967	1	3.10633e-05	2.63469e-05
2	1	0	1	0	42.6648	1.13627	1.13599	0.0261628	1	5.01402e-05	2.97208e-05
2	1	0	1	0	43.4252	1.17428	1.17403	0.0286183	1	7.09713e-05	3.35988e-05
2	0	0	0	0	44.1319	1.19038	1.19009	0.0264151	1	9.16192e-05	3.14365e-05
2	0	0	0	0	44.8922	1.15237	1.15211	0.0177679	1	0.000107973	2.04706e-05
2	0	0	0	0	45.6526	1.11436	1.11406	0.0132073	1	0.000119563	1.47136e-05
2	0	0	1	0	46.4128	1.07634	1.07609	0.010287	1	0.000128379	1.10697e-05
2	0	0	1	0	47.1732	1.03832	1.03802	0.0083062	1	0.000135377	8.62201e-06
2	0	0	0	0	47.9334	1.00031	1.00005	0.00681082	1	0.000141062	6.81115e-06
2	0	0	0	0	48.6938	0.962292	0.962022	0.00563371	1	0.000145749	5.41975e-06
2	0	0	0	0	49.4862	0.922676	0.922337	0.0046356	1	0.000149781	4.27559e-06
2	0	0	1	0	50.2464	0.88466	0.884343	0.00384121	1	0.000152982	3.39694e-06
2	0	0	1	0	51.0068	0.846644	0.846328	0.0031852	1	0.000155638	2.69572e-06
2	0	0	1	0	51.7672	0.808628	0.808269	0.00263559	1	0.000157828	2.13027e-06
2	0	0	0	0	52.5274	0.770612	0.770288	0.00211381	1	0.000159616	1.62824e-06
2	0	0	0	0	53.2878	0.732596	0.732227	0.00166338	1	0.000161043	1.21797e-06
2	0	0	1	0	54.048	0.69458	0.694241	0.00124357	1	0.000162138	8.63336e-07
2	0	0	1	0	54.8084	0.656564	0.656217	0.000894039	1	0.000162939	5.86684e-07
2	0	0	0	0	55.5687	0.618552	0.618196	0.000516624	1	0.000163457	3.19375e-07
2	0	0	0	0	56.329	0.580532	0.580217	0.000145602	1	0.000163702	8.44809e-08
2	0	0	0	0	57.0894	0.542516	0.542159	-0.000149704	1	0.000163689	-8.11632e-08
2	0	0	1	0	57.8496	0.5045	0.504176	-0.000512434	1	0.000163427	-2.58357e-07
2	0	0	1	0	58.61	0.466484	0.466119	-0.000789387	1	0.000162915	-3.67948e-07
2	0	0	0	0	59.3703	0.428468	0.428108	-0.00114206	1	0.00016216	-4.88925e-07
2	0	0	0	0	60.1306	0.390452	0.390076	-0.00141952	1	0.000161169	-5.53722e-07
2	0	0	0	0	60.891	0.352436	0.352027	-0.0017786	1	0.000159932	-6.26115e-07
2	0	0	1	0	61.6512	0.31442	0.314045	-0.00208359	1	0.000158459	-6.54342e-07
2	0	0	1	0	62.4116	0.276404	0.276027	-0.00236434	1	0.000156747	-6.52621e-07
2	0	0	0	0	63.1719	0.238385	0.237981	-0.00272158	1	0.0001548	-6.47684e-07
2	0	0	0	0	63.9322	0.200372	0.200009	-0.00298022	1	0.000152629	-5.9607e-07
2	0	0	0	0	64.6926	0.162357	0.161955	-0.00331169	1	0.000150224	-5.36344e-07
2	0	0	1	0	65.4528	0.124341	0.123993	-0.00354751	1	0.000147607	-4.39867e-07
2	0	0	1	0	66.2132	0.0863246	0.0859295	-0.00381043	1	0.000144792	-3.27429e-07
2	0	0	0	0	66.9734	0.0483086	0.0478977	-0.00405001	1	0.000141796	-1.93987e-07
2	0	0	0	0	67.7338	0.0102927	0.00990309	-0.00425505	1	0.000138622	-4.21382e-08
2	0	0	0	0	68.4942	-0.0277233	-0.0281499	-0.00452957	1	0.000135271	1.27507e-07
2	0	0	1	0	69.2544	-0.0657393	-0.0661308	-0.00473897	1	0.000131734	3.13392e-07
2	0	0	1	0	70.0148	-0.103755	-0.104228	-0.00508484	1	0.000127974	5.29985e-07
2	0	0	0	0	70.775	-0.141771	-0.142253	-0.00534109	1	0.000124003	7.59784e-07
2	0	0	0	0	71.5354	-0.179787	-0.180254	-0.00562064	1	0.000119825	1.01314e-06
2	0	0	0	0	72.2958	-0.217803	-0.218283	-0.00607979	1	0.000115385	1.32712e-06
2	0	0	1	0	73.056	-0.255819	-0.256265	-0.00684607	1	0.000110476	1.75441e-06
2	0	0	1	0	73.8164	-0.293835	-0.294289	-0.008222	1	0.000104772	2.41964e-06
2	0	0	0	0	74.5766	-0.331851	-0.332291	-0.00992371	1	9.78715e-05	3.29756e-06
2	0	0	0	0	75.369	-0.371468	-0.371889	-0.0121804	1	8.90806e-05	4.52975e-06
2	0	0	0	0	76.1294	-0.409484	-0.409951	-0.014568	1	7.89072e-05	5.97217e-06
2	0	0	1	0	76.8896	-0.4475	-0.447968	-0.017127	1	6.6843e-05	7.67234e-06
2	0	0	1	0	77.65	-0.485516	-0.485972	-0.020214	1	5.26492e-05	9.82342e-06
2	0	0	0	0	78.4103	-0.523533	-0.523994	-0.0236445	1	3.59539e-05	1.23896e-05
2	0	0	0	0	79.1706	-0.561548	-0.561978	-0.0274468	1	1.64782e-05	1.54245e-05
2	0	0	0	0	79.931	-0.599564	-0.599981	-0.0309238	1	-5.76246e-06	1.85537e-05
2	0	0	1	0	80.6912	-0.637579	-0.638054	-0.0339712	1	-3.05088e-05	2.16755e-05
2	0	0	1	0	81.4516	-0.675596	-0.675986	-0.0366128	1	-5.74292e-05	2.47498e-05
2	0	0	0	0	82.2118	-0.713611	-0.714041	-0.038661	1	-8.60613e-05	2.76055e-05
2	0	0	0	0	82.9722	-0.751627	-0.752075	-0.0407914	1	-0.000116313	3.06782e-05
2	0	0	0	0	83.7326	-0.789643	-0.790083	-0.0422594	1	-0.000147949	3.33884e-05
2	0	0	1	0	84.4928	-0.827659	-0.828079	-0.04334	1	-0.000180632	3.58889e-05
2	0	0	1	0	85.2532	-0.865675	-0.866107	-0.0441891	1	-0.000213942	3.82724e-05
2	0	0	0	0	86.0134	-0.903691	-0.904131	-0.0450449	1	-0.000247817	4.07264e-05
2	0	0	0	0	86.7738	-0.941707	-0.942121	-0.0456729	1	-0.000282393	4.30294e-05
2	0	0	0	0	87.5342	-0.979723	-0.980135	-0.0464773	1	-0.000317375	4.55541e-05
2	0	0	1	0	88.2944	-1.01774	-1.01813	-0.0476995	1	-0.000353272	4.85644e-05
2	0	0	1	0	89.0548	-1.05576	-1.05617	-0.0486569	1	-0.00038991	5.13902e-05
2	0	0	0	0	89.815	-1.09377	-1.09419	-0.0490946	1	-0.00042704	5.37186e-05
2	0	0	0	0	90.5754	-1.13179	-1.13216	-0.0496074	1	-0.000464566	5.61637e-05
2	0	0	0	0	91.3358	-1.1698	-1.17018	-0.050133	1	-0.000502529	5.86644e-05
2	0	0	1	0	92.096	-1.20782	-1.20823	-0.0509169	1	-0.000540852	6.15194e-05
2	0	0	1	0	92.8564	-1.24584	-1.24622	-0.0517983	1	-0.00058	6.45522e-05
2	0	0	0	0	93.6166	-1.28385	-1.28423	-0.0530324	1	-0.000619856	6.81061e-05
2	0	0	0	0	94.377	-1.32187	-1.32225	-0.0539994	1	-0.000660731	7.14008e-05
2	0	0	0	0	95.1374	-1.35988	-1.36028	-0.0550377	1	-0.000702158	7.48665e-05
2	0	0	1	0	95.8976	-1.3979	-1.3983	-0.0570858	1	-0.000744743	7.98228e-05
2	0	0	1	0	96.658	-1.43592	-1.43628	-0.0584825	1	-0.000788822	8.39971e-05
2	0	0	0	0	97.4182	-1.47393	-1.47429	-0.0612692	1	-0.000834243	9.03286e-05
2	0	0	0	0	98.1786	-1.51195	-1.51227	-0.0642194	1	-0.000881998	9.71174e-05
2	0	0	0	0	98.939	-1.54996	-1.55028	-0.0679425	1	-0.000932219	0.00010533
2	0	0	1	0	99.6992	-1.58798	-1.58833	-0.0727339	1	-0.000985604	0.000115525
2	0	0	1	0	100.46	-1.62599	-1.62634	-0.0795629	1	-0.00104356	0.000129396
2	0	0	0	0	101.22	-1.66401	-1.66442	-0.0876268	1	-0.00110696	0.000145848
2	0	0	0	0	101.98	-1.70203	-1.70244	-0.096285	1	-0.00117686	0.000163919
2	0	0	0	0	102.773	-1.74164	-1.74202	-0.10663	1	-0.00125724	0.000185751
2	0	0	1	0	103.533	-1.77966	-1.78006	-0.117274	1	-0.00134235	0.000208754
2	0	0	1	0	104.293	-1.81768	-1.81807	-0.128796	1	-0.00143591	0.000234159
2	0	0	0	0	105.053	-1.85569	-1.8561	-0.141591	1	-0.00153851	0.000262807
2	0	0	0	0	105.814	-1.89371	-1.89407	-0.15534	1	-0.00165136	0.000294226
2	0	0	0	0	106.574	-1.93172	-1.93206	-0.171944	1	-0.00177587	0.000332207
2	0	0	1	0	107.334	-1.96974	-1.97012	-0.190735	1	-0.00191337	0.00037577
2	1	0	0	1	108.071	-1.99345	-1.99384	-0.196628	1	-0.0020604	0.000392045
2	1	0	1	1	108.832	-1.95543	-1.95577	-0.163637	1	-0.00219622	0.000320037
2	1	0	1	1	109.592	-1.91742	-1.91781	-0.140626	1	-0.00231153	0.000269694
2	1	0	1	1	110.352	-1.8794	-1.87978	-0.122767	1	-0.00241147	0.000230774
2	1	0	0	1	111.113	-1.84139	-1.84175	-0.108231	1	-0.00249917	0.000199335
2	1	0	0	1	111.873	-1.80337	-1.80371	-0.0961854	1	-0.00257689	0.000173491
2	1	0	1	1	112.633	-1.76535	-1.76573	-0.0861974	1	-0.00264585	0.000152202
2	1	0	1	1	113.394	-1.72734	-1.72772	-0.0779922	1	-0.00270804	0.000134748
2	1	0	1	1	114.154	-1.68932	-1.68974	-0.0707646	1	-0.00276453	0.000119574
2	1	0	0	1	114.914	-1.65131	-1.65173	-0.0645288	1	-0.00281577	0.000106584
2	1	0	0	1	115.675	-1.61329	-1.61367	-0.0589625	1	-0.0028625	9.51458e-05
2	1	0	1	1	116.435	-1.57527	-1.57564	-0.0544656	1	-0.00290562	8.58182e-05
2	1	0	1	1	117.195	-1.53726	-1.53765	-0.0501089	1	-0.00294535	7.70499e-05
2	1	0	1	1	117.988	-1.49764	-1.49799	-0.0461656	1	-0.00298319	6.91554e-05
2	1	0	0	1	118.748	-1.45962	-1.45998	-0.0432067	1	-0.00301715	6.30809e-05
2	1	0	0	1	119.508	-1.42161	-1.42196	-0.0410558	1	-0.00304916	5.83799e-05
2	1	0	1	1	120.268	-1.38359	-1.38398	-0.0386858	1	-0.00307941	5.35406e-05
2	1	0	1	1	121.029	-1.34558	-1.34595	-0.0359656	1	-0.00310767	4.84079e-05
2	1	0	1	1	121.789	-1.30756	-1.30799	-0.0343646	1	-0.00313424	4.49485e-05
2	1	0	0	1	122.549	-1.26954	-1.26995	-0.0331813	1	-0.00316	4.21386e-05
2	1	0	0	1	123.31	-1.23153	-1.2319	-0.030574	1	-0.00318441	3.76642e-05
2	1	0	1	1	124.07	-1.19351	-1.19386	-0.0272466	1	-0.00320613	3.25286e-05
2	1	0	1	1	124.83	-1.1555	-1.15587	-0.0254661	1	-0.00322605	2.94356e-05
2	1	0	1	1	125.591	-1.11748	-1.11792	-0.0244701	1	-0.00324497	2.73555e-05
2	1	0	0	1	126.351	-1.07947	-1.07984	-0.024137	1	-0.00326346	2.60641e-05
2	1	0	0	1	127.111	-1.04145	-1.0419	-0.0236389	1	-0.00328155	2.46293e-05
2	1	0	1	1	127.872	-1.00343	-1.00385	-0.0235182	1	-0.00329945	2.36087e-05
2	1	0	1	1	128.632	-0.965417	-0.965865	-0.0226783	2	-0.00331708	2.19042e-05
2	1	0	1	1	129.392	-0.927401	-0.927813	-0.0217329	2	-0.00333395	2.01641e-05
2	1	0	0	1	130.153	-0.889385	-0.889803	-0.0208912	2	-0.00335012	1.8589e-05
2	1	0	0	1	130.913	-0.851369	-0.851794	-0.0193683	2	-0.00336543	1.64978e-05
2	1	0	1	1	131.673	-0.813353	-0.813778	-0.0178444	2	-0.00337959	1.45214e-05
2	1	0	1	1	132.434	-0.775337	-0.775771	-0.0152986	2	-0.00339216	1.18682e-05
2	1	0	1	1	133.194	-0.737321	-0.737753	-0.012798	2	-0.00340285	9.44178e-06
2	1	0	0	1	133.954	-0.699305	-0.699745	-0.0101499	2	-0.00341154	7.10236e-06
2	1	0	0	1	134.715	-0.66129	-0.661745	-0.00746048	2	-0.0034182	4.93693e-06
2	1	0	1	1	135.475	-0.623273	-0.623709	-0.00512951	2	-0.00342294	3.19932e-06
2	1	0	1	1	136.267	-0.583657	-0.584063	-0.00306328	2	-0.00342612	1.78915e-06
2	1	0	1	1	137.028	-0.545641	-0.546043	-0.00136995	2	-0.00342778	7.48051e-07
2	1	0	0	1	137.788	-0.507625	-0.50802	-0.000235263	2	-0.00342835	1.19518e-07
2	1	0	0	1	138.548	-0.469609	-0.469998	0.000260185	2	-0.00342829	-1.22286e-07
2	1	0	1	1	139.308	-0.431593	-0.431978	0.000589444	2	-0.00342799	-2.54627e-07
2	1	0	1	1	140.069	-0.393577	-0.39395	0.0015437	2	-0.0034272	-6.08139e-07
2	1	0	1	1	140.829	-0.355561	-0.355958	0.00296232	2	-0.0034255	-1.05446e-06
2	1	0	0	1	141.589	-0.317545	-0.317902	0.004351	2	-0.0034227	-1.38319e-06
2	1	0	0	1	142.35	-0.279529	-0.279929	0.0055646	2	-0.00341889	-1.55769e-06
2	1	0	1	1	143.11	-0.241513	-0.241867	0.00623859	2	-0.00341436	-1.50891e-06
2	1	0	1	1	143.87	-0.203497	-0.203879	0.0066107	2	-0.00340946	-1.34778e-06
2	1	0	1	1	144.631	-0.165481	-0.165877	0.00678555	2	-0.00340435	-1.12556e-06
2	1	0	0	1	145.391	-0.127465	-0.127889	0.00685542	2	-0.00339914	-8.76736e-07
2	1	0	0	1	146.151	-0.0894492	-0.0898917	0.00691329	2	-0.00339389	-6.21447e-07
2	1	0	1	1	146.912	-0.0514332	-0.0518705	0.00688291	2	-0.00338863	-3.5702e-07
2	1	0	1	1	147.672	-0.0134173	-0.0137846	0.00689081	2	-0.00338338	-9.49868e-08
2	1	0	1	1	148.432	0.0245987	0.0242515	0.00684506	2	-0.00337815	1.66003e-07
2	1	0	0	1	149.193	0.0626146	0.0622408	0.00685489	2	-0.00337293	4.26654e-07
2	1	0	0	1	149.953	0.100631	0.100321	0.00687857	2	-0.00336771	6.90068e-07
2	1	0	1	1	150.713	0.138647	0.138327	0.00695258	2	-0.00336243	9.61727e-07
2	1	0	1	1	151.474	0.176663	0.176315	0.00712729	2	-0.00335707	1.25665e-06
2	1	0	1	1	152.234	0.214678	0.214323	0.00723457	2	-0.0033516	1.55054e-06
2	1	0	0	1	152.994	0.252694	0.252351	0.0074397	2	-0.00334602	1.87741e-06
2	1	0	0	1	153.755	0.29071	0.290345	0.00759577	2	-0.00334029	2.20539e-06
2	1	0	1	1	154.515	0.328726	0.328406	0.00782382	2	-0.00333442	2.56939e-06
2	1	0	1	1	155.275	0.366742	0.366391	0.00802516	2	-0.00332839	2.94035e-06
2	1	0	0	1	156.035	0.404757	0.404435	0.00820666	2	-0.0033222	3.31906e-06
2	1	0	0	1	156.796	0.442774	0.442474	0.00843709	2	-0.00331586	3.73319e-06
2	1	0	0	1	157.556	0.48079	0.480491	0.00856284	2	-0.00330939	4.11436e-06
2	1	0	1	1	158.316	0.518806	0.51844	0.00876506	2	-0.00330278	4.54415e-06
2	1	0	1	1	159.077	0.556822	0.556521	0.0089991	2	-0.00329602	5.00819e-06
2	1	0	0	1	159.837	0.59484	0.594522	0.00934011	2	-0.00328903	5.5529e-06
2	1	0	0	1	160.597	0.632854	0.632597	0.00982788	2	-0.00328174	6.21708e-06
2	1	0	0	1	161.39	0.672471	0.672155	0.0103673	2	-0.00327372	6.9684e-06
2	1	0	1	1	162.15	0.710487	0.710138	0.0110635	2	-0.00326555	7.85663e-06
2	1	0	1	1	162.91	0.748502	0.748141	0.0118296	2	-0.00325682	8.8502e-06
2	1	0	1	1	163.671	0.786518	0.786175	0.0126971	2	-0.00324745	9.98211e-06
2	1	0	0	1	164.431	0.824534	0.824227	0.0137136	2	-0.0032374	1.13031e-05
2	1	0	0	1	165.191	0.86255	0.862236	0.0147387	2	-0.00322656	1.27083e-05
2	1	0	1	1	165.952	0.900566	0.900245	0.0159783	2	-0.00321486	1.43844e-05
2	1	0	1	1	166.712	0.938582	0.938277	0.017297	2	-0.0032022	1.62294e-05
2	1	0	1	1	167.472	0.976598	0.976349	0.0187428	2	-0.00318847	1.82995e-05
2	1	0	0	1	168.233	1.01461	1.01436	0.0203691	2	-0.00317356	2.06617e-05
2	1	0	0	1	168.993	1.05263	1.05237	0.0221136	2	-0.00315738	2.32716e-05
2	1	0	1	1	169.753	1.09065	1.09035	0.0239711	2	-0.00313984	2.61368e-05
2	1	0	1	1	170.514	1.12866	1.12837	0.0260538	2	-0.00312079	2.93984e-05
2	1	0	1	1	171.274	1.16668	1.16637	0.0284792	2	-0.00310006	3.32173e-05
2	0	0	0	1	171.993	1.19739	1.19711	0.0293768	2	-0.00307872	3.51673e-05
2	0	0	0	1	172.753	1.15937	1.15907	0.0192235	2	-0.00306085	2.22814e-05
2	0	0	1	1	173.513	1.12136	1.12104	0.0141102	2	-0.0030484	1.58181e-05
2	0	0	1	1	174.274	1.08334	1.08309	0.010987	2	-0.00303897	1.18999e-05
2	0	0	1	1	175.034	1.04533	1.04503	0.00886661	2	-0.00303151	9.26587e-06
2	0	0	0	1	175.794	1.00731	1.00704	0.00725763	2	-0.00302544	7.30872e-06
2	0	0	0	1	176.555	0.969295	0.969018	0.00605722	2	-0.00302043	5.86956e-06
2	0	0	1	1	177.315	0.931279	0.930977	0.00504156	2	-0.00301625	4.69358e-06
2	0	0	1	1	178.107	0.891663	0.891343	0.00418326	2	-0.00301262	3.72872e-06
2	0	0	1	1	178.868	0.853647	0.853264	0.0034808	2	-0.00300973	2.97004e-06
2	0	0	0	1	179.628	0.815631	0.815253	0.00287445	2	-0.00300733	2.3434e-06
2	0	0	0	1	180.388	0.777615	0.777271	0.00238948	2	-0.00300534	1.85727e-06
2	0	0	1	1	181.148	0.739599	0.739294	0.00190654	2	-0.00300372	1.4095e-06
2	0	0	1	1	181.909	0.701583	0.701257	0.00151083	2	-0.00300244	1.05948e-06
2	0	0	1	1	182.669	0.663567	0.663259	0.00109849	2	-0.00300147	7.28582e-07
2	0	0	0	1	183.429	0.625551	0.625222	0.000706433	2	-0.00300079	4.41678e-07
2	0	0	0	1	184.19	0.587535	0.587135	0.000398169	2	-0.00300039	2.33779e-07
2	0	0	1	1	184.95	0.549519	0.54913	1.38471e-05	2	-0.00300025	7.60386e-09
2	0	0	1	1	185.71	0.511503	0.511176	-0.000296409	2	-0.00300036	-1.51517e-07
2	0	0	1	1	186.471	0.473487	0.473094	-0.000648626	2	-0.00300074	-3.06861e-07
2	0	0	0	1	187.231	0.435471	0.435157	-0.000934733	2	-0.00300136	-4.06756e-07
2	0	0	0	1	187.991	0.397455	0.397096	-0.00128512	2	-0.00300222	-5.10316e-07
2	0	0	1	1	188.752	0.359439	0.359027	-0.00162697	2	-0.00300333	-5.84126e-07
2	0	0	1	1	189.512	0.321423	0.32105	-0.00192723	2	-0.00300469	-6.18736e-07
2	0	0	1	1	190.272	0.283407	0.283067	-0.00226583	2	-0.0030063	-6.41382e-07
2	0	0	0	1	191.033	0.245391	0.244979	-0.00253893	2	-0.00300814	-6.21986e-07
2	0	0	0	1	191.793	0.207375	0.207007	-0.00286142	2	-0.00301023	-5.92334e-07
2	0	0	1	1	192.553	0.169359	0.168982	-0.00316151	2	-0.00301253	-5.34237e-07
2	0	0	1	1	193.314	0.131343	0.130977	-0.00343415	2	-0.00301505	-4.49796e-07
2	0	0	1	1	194.074	0.0933275	0.0929308	-0.00369417	2	-0.00301777	-3.43302e-07
2	0	0	0	1	194.834	0.0553116	0.054933	-0.00388821	2	-0.00302067	-2.13591e-07
2	0	0	0	1	195.595	0.0172956	0.0169192	-0.00414596	2	-0.00302375	-7.01464e-08
2	0	0	1	1	196.355	-0.0207203	-0.0211571	-0.00437149	2	-0.00302699	9.24881e-08
2	0	0	1	1	197.115	-0.0587363	-0.059155	-0.0046391	2	-0.00303043	2.74426e-07
2	0	0	1	1	197.876	-0.0967523	-0.0971507	-0.00489957	2	-0.00303407	4.75997e-07
2	0	0	0	1	198.636	-0.134768	-0.135178	-0.00516859	2	-0.00303791	6.98681e-07
2	0	0	0	1	199.396	-0.172784	-0.173254	-0.00545857	2	-0.00304196	9.45717e-07
2	0	0	1	1	200.156	-0.2108	-0.211221	-0.00575425	2	-0.00304622	1.21542e-06
2	0	0	1	1	200.917	-0.248816	-0.249251	-0.00652946	2	-0.00305089	1.62748e-06
2	0	0	1	1	201.677	-0.286832	-0.287277	-0.00767726	2	-0.00305627	2.2055e-06
2	0	0	0	1	202.437	-0.324848	-0.325266	-0.00942912	2	-0.00306277	3.06697e-06
2	0	0	0	1	203.23	-0.364465	-0.364948	-0.0115969	2	-0.0030711	4.23227e-06
2	0	0	1	1	203.99	-0.402481	-0.402948	-0.0138351	2	-0.00308077	5.57484e-06
2	0	0	1	1	204.75	-0.440497	-0.440929	-0.0164031	2	-0.00309227	7.23263e-06
2	0	0	1	1	205.511	-0.478513	-0.478963	-0.0192603	2	-0.00310583	9.22497e-06
2	0	0	0	1	206.271	-0.516529	-0.516977	-0.0227804	2	-0.00312183	1.17769e-05
2	0	0	0	1	207.031	-0.554545	-0.554997	-0.0264844	2	-0.00314058	1.46988e-05
2	0	0	1	1	207.792	-0.592561	-0.593022	-0.0300949	2	-0.00316214	1.78469e-05
2	0	0	1	1	208.552	-0.630577	-0.631024	-0.0334949	2	-0.00318641	2.11361e-05
2	0	0	1	1	209.312	-0.668593	-0.669034	-0.0360266	2	-0.0032129	2.41031e-05
2	0	0	0	1	210.073	-0.706609	-0.707037	-0.0384811	2	-0.00324129	2.72075e-05
2	0	0	0	1	210.833	-0.744625	-0.745086	-0.0400396	2	-0.00327117	2.9833e-05
2	0	0	1	1	211.593	-0.78264	-0.783087	-0.041611	2	-0.00330224	3.25851e-05
2	0	0	1	1	212.354	-0.820656	-0.821072	-0.043066	2	-0.00333447	3.53603e-05
2	0	0	1	1	213.114	-0.858672	-0.859095	-0.0440506	2	-0.00336765	3.78436e-05
2	0	0	0	1	213.874	-0.896688	-0.897099	-0.0448389	2	-0.00340148	4.02249e-05
2	0	0	0	1	214.635	-0.934704	-0.935119	-0.0455577	2	-0.00343587	4.26019e-05
2	0	0	1	1	215.395	-0.97272	-0.973139	-0.0467935	2	-0.00347102	4.55365e-05
2	0	0	1	1	216.155	-1.01074	-1.01113	-0.047345	2	-0.00350685	4.78718e-05
2	0	0	1	1	216.916	-1.04875	-1.04916	-0.047707	2	-0.00354301	5.00524e-05
2	0	0	0	1	217.676	-1.08677	-1.08717	-0.0485598	2	-0.00357958	5.27925e-05
2	0	0	0	1	218.436	-1.12478	-1.12522	-0.0495974	2	-0.00361697	5.58078e-05
2	0	0	1	1	219.196	-1.1628	-1.1632	-0.0503801	2	-0.00365506	5.86024e-05
2	0	0	1	1	219.957	-1.20082	-1.20122	-0.0507015	2	-0.00369348	6.09038e-05
2	0	0	1	1	220.717	-1.23883	-1.23924	-0.0515314	2	-0.00373239	6.38601e-05
2	0	0	0	1	221.477	-1.27685	-1.27723	-0.0526231	2	-0.00377201	6.72119e-05
2	0	0	0	1	222.238	-1.31486	-1.31528	-0.0535877	2	-0.00381243	7.04827e-05
2	0	0	1	1	222.998	-1.35288	-1.35327	-0.0549532	2	-0.00385368	7.43663e-05
2	0	0	1	1	223.758	-1.3909	-1.39128	-0.0561844	2	-0.00389599	7.81682e-05
2	0	0	1	1	224.519	-1.42891	-1.42927	-0.0577369	2	-0.00393925	8.25218e-05
2	0	0	0	1	225.279	-1.46693	-1.46727	-0.0596625	2	-0.00398397	8.75407e-05
2	0	0	0	1	226.039	-1.50494	-1.50532	-0.0630152	2	-0.0040307	9.48579e-05
2	0	0	1	1	226.8	-1.54296	-1.54331	-0.0667932	2	-0.00408006	0.000103082
2	0	0	1	1	227.56	-1.58098	-1.58133	-0.0712198	2	-0.00413251	0.000112622
2	0	0	0	1	228.32	-1.61899	-1.61935	-0.0778898	2	-0.00418903	0.000126131
2	0	0	0	1	229.081	-1.65701	-1.65739	-0.0846387	2	-0.0042509	0.000140279
2	0	0	0	1	229.841	-1.69502	-1.69539	-0.0929315	2	-0.00431849	0.000157555
2	0	0	1	1	230.601	-1.73304	-1.73338	-0.102568	2	-0.0043927	0.000177789
2	0	0	1	1	231.394	-1.77266	-1.77309	-0.113669	2	-0.00447835	0.000201546
2	0	0	1	1	232.154	-1.81067	-1.81106	-0.124702	2	-0.0045691	0.000225842
2	0	0	0	1	232.914	-1.84869	-1.84905	-0.136307	2	-0.00466834	0.00025204
2	0	0	0	1	233.675	-1.8867	-1.88708	-0.150202	2	-0.00477715	0.000283442
2	0	0	1	1	234.435	-1.92472	-1.92514	-0.165166	2	-0.00489676	0.000317967
2	0	0	1	1	235.195	-1.96274	-1.96309	-0.182569	2	-0.00502912	0.000358399
2	1	0	1	0	235.941	-2	-2.00028	-0.203388	2	-0.00517296	0.000406832
2	1	0	1	0	236.692	-1.96244	-1.96282	-0.164775	2	-0.00530862	0.000323423
2	1	0	1	0	237.453	-1.92442	-1.92481	-0.14078	2	-0.00542445	0.000270975
2	1	0	0	0	238.213	-1.8864	-1.88677	-0.12287	2	-0.00552455	0.000231826
2	1	0	0	0	238.973	-1.84839	-1.84877	-0.109424	2	-0.0056125	0.0002023
2	1	0	1	0	239.734	-1.81037	-1.81077	-0.0966123	2	-0.00569039	0.000174942
2	1	0	1	0	240.494	-1.77236	-1.77275	-0.0863826	2	-0.00575984	0.000153135
2	1	0	1	0	241.254	-1.73434	-1.73475	-0.0781987	2	-0.00582224	0.000135656
2	1	0	0	0	242.015	-1.69632	-1.69676	-0.0700895	2	-0.00587851	0.000118925
2	1	0	0	0	242.775	-1.65831	-1.65872	-0.0632426	2	-0.00592901	0.000104902
2	1	0	1	0	243.535	-1.62029	-1.62069	-0.0577635	2	-0.00597489	9.36169e-05
2	1	0	1	0	244.296	-1.58228	-1.58269	-0.0536672	2	-0.00601713	8.49384e-05
2	1	0	1	0	245.056	-1.54426	-1.54463	-0.0497078	2	-0.00605645	7.67801e-05
2	1	0	0	0	245.848	-1.50464	-1.505	-0.04624	2	-0.00609456	6.95911e-05
2	1	0	0	0	246.609	-1.46663	-1.467	-0.0437743	2	-0.0061288	6.42168e-05
2	1	0	1	0	247.369	-1.42861	-1.42896	-0.0408924	2	-0.00616106	5.84337e-05
2	1	0	1	0	248.129	-1.3906	-1.39098	-0.0382548	2	-0.00619103	5.32116e-05
2	1	0	1	0	248.89	-1.35258	-1.35299	-0.0369695	2	-0.00621957	5.00193e-05
2	1	0	0	0	249.65	-1.31456	-1.31495	-0.0351487	2	-0.00624687	4.62189e-05
2	1	0	0	0	250.41	-1.27655	-1.27696	-0.0337981	2	-0.00627311	4.31589e-05
2	1	0	1	0	251.17	-1.23853	-1.23891	-0.0310118	2	-0.00629784	3.84208e-05
2	1	0	1	0	251.931	-1.20052	-1.20089	-0.0274739	2	-0.00631984	3.29931e-05
2	1	0	1	0	252.691	-1.1625	-1.16288	-0.0252861	2	-0.00633995	2.94046e-05
2	1	0	0	0	253.451	-1.12448	-1.12485	-0.0245329	2	-0.0063587	2.75958e-05
2	1	0	0	0	254.212	-1.08647	-1.08688	-0.0246366	2	-0.00637741	2.67769e-05
2	1	0	1	0	254.972	-1.04845	-1.04885	-0.0238799	2	-0.0063958	2.50465e-05
2	1	0	1	0	255.732	-1.01044	-1.01086	-0.023268	2	-0.00641366	2.35207e-05
2	1	0	1	0	256.493	-0.97242	-0.972833	-0.023168	3	-0.00643129	2.25386e-05
2	1	0	0	0	257.253	-0.934404	-0.934798	-0.0221009	3	-0.00644864	2.06599e-05
2	1	0	0	0	258.013	-0.896388	-0.896795	-0.0212911	3	-0.0064651	1.90937e-05
2	1	0	1	0	258.774	-0.858372	-0.8588	-0.0198321	3	-0.00648074	1.70318e-05
2	1	0	1	0	259.534	-0.820356	-0.820777	-0.0181985	3	-0.00649518	1.49369e-05
2	1	0	1	0	260.294	-0.78234	-0.782815	-0.0156613	3	-0.00650805	1.22599e-05
2	1	0	0	0	261.055	-0.744324	-0.744758	-0.0130924	3	-0.00651898	9.75065e-06
2	1	0	0	0	261.815	-0.706308	-0.706769	-0.0103121	3	-0.00652782	7.28828e-06
2	1	0	1	0	262.575	-0.668292	-0.668769	-0.00785214	3	-0.00653467	5.25127e-06
2	1	0	1	0	263.336	-0.630277	-0.630713	-0.00544045	3	-0.00653967	3.43136e-06
2	1	0	1	0	264.128	-0.59066	-0.591089	-0.00328982	3	-0.00654308	1.94457e-06
2	1	0	0	0	264.888	-0.552644	-0.553051	-0.0016501	3	-0.00654492	9.12591e-07
2	1	0	0	0	265.649	-0.514628	-0.515031	-0.000358593	3	-0.00654563	1.84687e-07
2	1	0	1	0	266.409	-0.476607	-0.477022	0.000246478	3	-0.00654562	-1.17575e-07
2	1	0	1	0	267.169	-0.438596	-0.43901	0.000589156	3	-0.00654528	-2.58646e-07
2	1	0	1	0	267.93	-0.40058	-0.40101	0.00141342	3	-0.00654455	-5.66795e-07
2	1	0	0	0	268.69	-0.362564	-0.363014	0.00267992	3	-0.00654299	-9.72849e-07
2	1	0	0	0	269.45	-0.324548	-0.325014	0.00422109	3	-0.00654035	-1.37191e-06
2	1	0	1	0	270.21	-0.286532	-0.28696	0.00535645	3	-0.00653668	-1.53708e-06
2	1	0	1	0	270.971	-0.248516	-0.248892	0.00618234	3	-0.00653225	-1.53873e-06
2	1	0	1	0	271.731	-0.2105	-0.210935	0.00654943	3	-0.0065274	-1.38151e-06
2	1	0	0	0	272.491	-0.172484	-0.172896	0.00675142	3	-0.0065223	-1.16729e-06
2	1	0	0	0	273.252	-0.134468	-0.134907	0.00685455	3	-0.0065171	-9.24725e-07
2	1	0	1	0	274.012	-0.0964522	-0.096877	0.00683022	3	-0.00651188	-6.61691e-07
2	1	0	1	0	274.772	-0.0584362	-0.0588845	0.00684198	3	-0.00650666	-4.02887e-07
2	1	0	1	0	275.533	-0.0204202	-0.0208346	0.00678382	3	-0.00650147	-1.41339e-07
2	1	0	0	0	276.293	0.0175957	0.0172735	0.00677661	3	-0.00649631	1.17056e-07
2	1	0	0	0	277.053	0.0556117	0.0552979	0.00676699	3	-0.00649116	3.742e-07
2	1	0	1	0	277.814	0.0936277	0.0933053	0.00677427	3	-0.006486	6.32075e-07
2	1	0	1	0	278.574	0.131644	0.13133	0.00686546	3	-0.00648081	9.01638e-07
2	1	0	1	0	279.334	0.16966	0.169337	0.00696072	3	-0.00647555	1.17871e-06
2	1	0	0	0	280.095	0.207676	0.207363	0.00715543	3	-0.00647017	1.48377e-06
2	1	0	0	0	280.855	0.245691	0.245386	0.00728841	3	-0.00646468	1.78847e-06
2	1	0	1	0	281.615	0.283707	0.283376	0.00745648	3	-0.00645906	2.11299e-06
2	1	0	1	0	282.376	0.321723	0.321383	0.00768763	3	-0.00645329	2.47068e-06
2	1	0	1	0	283.136	0.359739	0.359439	0.00789258	3	-0.00644735	2.8369e-06
2	1	0	0	0	283.896	0.397755	0.397437	0.00811459	3	-0.00644125	3.22504e-06
2	1	0	0	0	284.657	0.435771	0.435427	0.00828686	3	-0.006435	3.60832e-06
2	1	0	1	0	285.417	0.473787	0.473418	0.00848165	3	-0.00642862	4.01537e-06
2	1	0	1	0	286.177	0.511803	0.511477	0.00864296	3	-0.00642211	4.42067e-06
2	1	0	1	0	286.938	0.549819	0.549509	0.00883771	3	-0.00641544	4.85641e-06
2	1	0	0	0	287.698	0.587835	0.587499	0.00919039	3	-0.00640858	5.39934e-06
2	1	0	0	0	288.458	0.625851	0.625561	0.00960872	3	-0.00640142	6.01084e-06
2	1	0	1	0	289.218	0.663867	0.663521	0.0101866	3	-0.00639389	6.75905e-06
2	1	0	1	0	290.011	0.703484	0.703158	0.0108214	3	-0.00638557	7.60917e-06
2	1	0	1	0	290.771	0.7415	0.741178	0.0115742	3	-0.00637702	8.57853e-06
2	1	0	0	0	291.531	0.779516	0.779217	0.0124652	3	-0.00636786	9.71307e-06
2	1	0	0	0	292.292	0.817532	0.817173	0.0133993	3	-0.006358	1.09496e-05
2	1	0	1	0	293.052	0.855547	0.855247	0.014516	3	-0.00634737	1.24147e-05
2	1	0	1	0	293.812	0.893563	0.893249	0.0156967	3	-0.00633587	1.40211e-05
2	1	0	1	0	294.573	0.931579	0.931238	0.0170241	3	-0.0063234	1.58535e-05
2	1	0	0	0	295.333	0.969595	0.969277	0.0184471	3	-0.00630989	1.78804e-05
2	1	0	0	0	296.093	1.00761	1.00733	0.0200656	3	-0.00629522	2.02127e-05
2	1	0	1	0	296.854	1.04563	1.04532	0.02182	3	-0.00627929	2.28088e-05
2	1	0	1	0	297.614	1.08364	1.08334	0.0236658	3	-0.00626197	2.56381e-05
2	1	0	1	0	298.374	1.12166	1.12139	0.0257277	3	-0.00624316	2.88507e-05
2	1	0	0	0	299.135	1.15968	1.15939	0.0280775	3	-0.0062227	3.25528e-05
2	1	0	0	0	299.895	1.19769	1.19743	0.0308637	3	-0.00620029	3.69571e-05
2	0	0	1	0	300.614	1.16638	1.16611	0.0204654	3	-0.00618216	2.38648e-05
2	0	0	1	0	301.374	1.12836	1.12809	0.0148116	3	-0.00616899	1.67088e-05
2	0	0	1	0	302.134	1.09035	1.09005	0.0113974	3	-0.00615917	1.24237e-05
2	0	0	0	0	302.895	1.05233	1.05199	0.00909724	3	-0.00615146	9.57025e-06
2	0	0	0	0	303.655	1.01431	1.01399	0.00748415	3	-0.00614522	7.58885e-06
2	0	0	1	0	304.415	0.976295	0.976	0.00618137	3	-0.00614008	6.03301e-06
2	0	0	1	0	305.176	0.938282	0.937977	0.00516364	3	-0.00613581	4.84338e-06
2	0	0	1	0	305.968	0.898666	0.898363	0.00428676	3	-0.00613211	3.85107e-06
2	0	0	0	0	306.728	0.86065	0.860297	0.00353973	3	-0.00612916	3.04522e-06
2	0	0	0	0	307.489	0.822634	0.82231	0.00296882	3	-0.00612671	2.44129e-06
2	0	0	0	0	308.249	0.784618	0.784245	0.00241091	3	-0.00612469	1.89074e-06
2	0	0	1	0	309.009	0.746602	0.746273	0.00196806	3	-0.00612304	1.46871e-06
2	0	0	1	0	309.77	0.708586	0.70826	0.00153348	3	-0.00612173	1.0861e-06
2	0	0	0	0	310.53	0.67057	0.670203	0.00113005	3	-0.00612074	7.57364e-07
2	0	0	0	0	311.29	0.632554	0.632218	0.000797809	3	-0.00612002	5.04389e-07
2	0	0	0	0	312.051	0.594538	0.594181	0.000429368	3	-0.00611956	2.55122e-07
2	0	0	1	0	312.811	0.556522	0.556187	0.000134835	3	-0.00611937	7.49933e-08
2	0	0	1	0	313.571	0.518506	0.518161	-0.000206839	3	-0.00611942	-1.07176e-07
2	0	0	0	0	314.331	0.48049	0.480113	-0.000514363	3	-0.0061197	-2.46953e-07
2	0	0	0	0	315.092	0.442474	0.442114	-0.000817654	3	-0.00612023	-3.61497e-07
2	0	0	1	0	315.852	0.404461	0.404077	-0.00117775	3	-0.006121	-4.75901e-07
2	0	0	1	0	316.612	0.366442	0.366113	-0.00145509	3	-0.00612201	-5.32728e-07
2	0	0	1	0	317.373	0.328426	0.328011	-0.00179823	3	-0.00612326	-5.8984e-07
2	0	0	0	0	318.133	0.29041	0.290035	-0.00206786	3	-0.00612475	-5.9975e-07
2	0	0	0	0	318.893	0.252394	0.252007	-0.00240315	3	-0.00612648	-6.0561e-07
2	0	0	1	0	319.654	0.214377	0.213981	-0.00273711	3	-0.00612844	-5.85692e-07
2	0	0	1	0	320.414	0.176362	0.175996	-0.00299153	3	-0.00613064	-5.26495e-07
2	0	0	1	0	321.174	0.138346	0.137982	-0.00329663	3	-0.00613305	-4.54876e-07
2	0	0	0	0	321.935	0.10033	0.099913	-0.00352864	3	-0.00613566	-3.52557e-07
2	0	0	0	0	322.695	0.0623145	0.0618929	-0.00379452	3	-0.00613846	-2.34854e-07
2	0	0	1	0	323.455	0.0242942	0.0238701	-0.00401082	3	-0.00614144	-9.57387e-08
2	0	0	1	0	324.216	-0.0137174	-0.0141611	-0.00425121	3	-0.00614459	6.02021e-08
2	0	0	1	0	324.976	-0.0517334	-0.0522333	-0.00453198	3	-0.00614792	2.3672e-07
2	0	0	0	0	325.736	-0.0897493	-0.0901876	-0.00475548	3	-0.00615146	4.28885e-07
2	0	0	0	0	326.497	-0.127765	-0.128206	-0.00505688	3	-0.00615519	6.4832e-07
2	0	0	1	0	327.257	-0.165781	-0.166225	-0.00524681	3	-0.00615912	8.7215e-07
2	0	0	1	0	328.017	-0.203797	-0.204245	-0.00562584	3	-0.00616327	1.14905e-06
2	0	0	1	0	328.778	-0.241813	-0.242204	-0.00622432	3	-0.00616776	1.50756e-06
2	0	0	0	0	329.538	-0.279829	-0.280273	-0.00731687	3	-0.0061729	2.05072e-06
2	0	0	0	0	330.298	-0.317845	-0.318299	-0.00896145	3	-0.00617906	2.85242e-06
2	0	0	1	0	331.09	-0.357457	-0.35788	-0.0109492	3	-0.00618696	3.91851e-06
2	0	0	1	0	331.851	-0.395478	-0.395889	-0.0132582	3	-0.0061962	5.24878e-06
2	0	0	1	0	332.611	-0.433494	-0.43395	-0.0156439	3	-0.00620721	6.78869e-06
2	0	0	0	0	333.371	-0.47151	-0.471971	-0.0184844	3	-0.0062202	8.7241e-06
2	0	0	0	0	334.132	-0.509526	-0.509973	-0.0218624	3	-0.00623553	1.11492e-05
2	0	0	1	0	334.892	-0.547541	-0.547914	-0.0255245	3	-0.00625359	1.39852e-05
2	0	0	1	0	335.652	-0.585558	-0.58595	-0.0292781	3	-0.0062745	1.71555e-05
2	0	0	1	0	336.413	-0.623574	-0.623994	-0.0325558	3	-0.00629808	2.03146e-05
2	0	0	0	0	337.173	-0.66159	-0.662016	-0.0354996	3	-0.00632399	2.35013e-05
2	0	0	0	0	337.933	-0.699606	-0.699997	-0.0379714	3	-0.00635199	2.65798e-05
2	0	0	1	0	338.694	-0.737625	-0.738062	-0.0396054	3	-0.00638156	2.92313e-05
2	0	0	1	0	339.454	-0.775638	-0.776068	-0.0412119	3	-0.00641233	3.19832e-05
2	0	0	1	0	340.214	-0.813653	-0.814098	-0.0423912	3	-0.00644413	3.45106e-05
2	0	0	0	0	340.975	-0.851669	-0.852082	-0.0435336	3	-0.00647692	3.70942e-05
2	0	0	0	0	341.735	-0.889685	-0.890107	-0.0443862	3	-0.00651039	3.95084e-05
2	0	0	1	0	342.495	-0.927701	-0.928129	-0.0451781	3	-0.00654448	4.19312e-05
2	0	0	1	0	343.256	-0.965717	-0.966161	-0.0458653	3	-0.00657913	4.43133e-05
2	0	0	1	0	344.016	-1.00373	-1.00415	-0.0468698	3	-0.00661447	4.70645e-05
2	0	0	0	0	344.776	-1.04175	-1.04214	-0.0475145	3	-0.00665038	4.95167e-05
2	0	0	0	0	345.537	-1.07977	-1.08015	-0.0480181	3	-0.00668666	5.18668e-05
2	0	0	1	0	346.297	-1.11778	-1.11821	-0.0492555	3	-0.00672372	5.50778e-05
2	0	0	1	0	347.057	-1.1558	-1.15617	-0.0497961	3	-0.00676149	5.75726e-05
2	0	0	1	0	347.818	-1.19381	-1.19419	-0.0505512	3	-0.00679972	6.03677e-05
2	0	0	0	0	348.578	-1.23183	-1.23217	-0.0516187	3	-0.00683851	6.36031e-05
2	0	0	0	0	349.338	-1.26985	-1.27024	-0.0522157	3	-0.00687807	6.63266e-05
2	0	0	1	0	350.098	-1.30786	-1.30828	-0.0533923	3	-0.00691814	6.9852e-05
2	0	0	1	0	350.859	-1.34588	-1.34624	-0.0540289	3	-0.00695894	7.27358e-05
2	0	0	1	0	351.619	-1.38389	-1.38426	-0.0557209	3	-0.00700066	7.71324e-05
2	0	0	0	0	352.379	-1.42191	-1.42227	-0.0575261	3	-0.00704376	8.18179e-05
2	0	0	0	0	353.14	-1.45993	-1.46026	-0.0593192	3	-0.0070882	8.66217e-05
2	0	0	1	0	353.9	-1.49794	-1.49831	-0.0627276	3	-0.00713451	9.39853e-05
2	0	0	1	0	354.66	-1.53596	-1.53631	-0.0657936	3	-0.00718328	0.00010108
2	0	0	1	0	355.421	-1.57397	-1.57431	-0.0703771	3	-0.00723499	0.000110796
2	0	0	0	0	356.181	-1.61199	-1.61234	-0.0755455	3	-0.00729044	0.000121805
2	0	0	0	0	356.941	-1.65	-1.65041	-0.0826718	3	-0.00735067	0.000136443
2	0	0	1	0	357.702	-1.68802	-1.68841	-0.0909266	3	-0.00741654	0.000153521
2	0	0	1	0	358.462	-1.72604	-1.7264	-0.0999009	3	-0.00748913	0.000172469
2	0	0	1	0	359.252	-1.76555	-1.76596	-0.110942	3	-0.00757265	0.000195919
2	0	0	0	0	360.013	-1.80357	-1.80394	-0.121668	3	-0.00766098	0.000219481
2	0	0	0	0	360.773	-1.84159	-1.84199	-0.133037	3	-0.0077579	0.000245054
2	0	0	1	0	361.533	-1.8796	-1.87996	-0.145888	3	-0.00786408	0.000274264
2	0	0	1	0	362.294	-1.91762	-1.91797	-0.159947	3	-0.0079803	0.000306775
2	0	0	1	0	363.054	-1.95563	-1.95599	-0.177918	3	-0.00810859	0.000348005
2	0	0	0	0	363.814	-1.99365	-1.99401	-0.196583	3	-0.00825073	0.000391989
2	1	0	1	1	364.553	-1.96944	-1.96981	-0.166851	3	-0.00838674	0.000328665
2	1	0	0	1	365.313	-1.93142	-1.93178	-0.142516	3	-0.00850368	0.00027531
2	1	0	0	1	366.074	-1.89341	-1.89379	-0.124273	3	-0.00860471	0.000235347
2	1	0	0	1	366.834	-1.85539	-1.85574	-0.108612	3	-0.0086931	0.000201557
2	1	0	1	1	367.594	-1.81738	-1.81778	-0.097661	3	-0.0087715	0.000177526
2	1	0	1	1	368.355	-1.77936	-1.77975	-0.0875891	3	-0.00884192	0.000155887
2	1	0	0	1	369.115	-1.74134	-1.74175	-0.0782071	3	-0.0089048	0.000136218
2	1	0	0	1	369.875	-1.70333	-1.70372	-0.070632	3	-0.00896131	0.000120337
2	1	0	0	1	370.636	-1.66531	-1.66571	-0.064939	3	-0.00901281	0.00010817
2	1	0	1	1	371.396	-1.6273	-1.62768	-0.0593856	3	-0.00905992	9.66606e-05
2	1	0	1	1	372.156	-1.58928	-1.58963	-0.0547947	3	-0.00910304	8.71033e-05
2	1	0	0	1	372.917	-1.55126	-1.55163	-0.0507253	3	-0.00914318	7.87067e-05
2	1	0	0	1	373.709	-1.51165	-1.51201	-0.0473537	3	-0.00918193	7.1599e-05
2	1	0	0	1	374.469	-1.47363	-1.474	-0.0443112	3	-0.00921663	6.53148e-05
2	1	0	1	1	375.23	-1.43561	-1.43602	-0.0418062	3	-0.0092494	6.00346e-05
2	1	0	1	1	375.99	-1.3976	-1.39797	-0.0392112	3	-0.00928014	5.48163e-05
2	1	0	0	1	376.75	-1.35958	-1.35998	-0.037309	3	-0.00930924	5.07394e-05
2	1	0	0	1	377.511	-1.32157	-1.32201	-0.0353631	3	-0.00933682	4.67503e-05
2	1	0	0	1	378.271	-1.28355	-1.28393	-0.0342506	3	-0.00936317	4.39755e-05
2	1	0	1	1	379.031	-1.24554	-1.2459	-0.0318201	3	-0.0093884	3.96446e-05
2	1	0	1	1	379.792	-1.20752	-1.20792	-0.0279208	3	-0.00941102	3.37261e-05
2	1	0	0	1	380.552	-1.1695	-1.16987	-0.0262034	3	-0.00943151	3.06546e-05
2	1	0	0	1	381.312	-1.13149	-1.13189	-0.0252209	3	-0.00945085	2.85472e-05
2	1	0	0	1	382.073	-1.09347	-1.09388	-0.0243855	3	-0.00946972	2.66748e-05
2	1	0	1	1	382.833	-1.05546	-1.05582	-0.0242505	3	-0.00948818	2.56042e-05
2	1	0	1	1	383.593	-1.01744	-1.01784	-0.0235529	3	-0.00950632	2.39732e-05
2	1	0	0	1	384.353	-0.979423	-0.979809	-0.0231907	4	-0.009524	2.27224e-05
2	1	0	0	1	385.114	-0.941407	-0.941816	-0.0223389	4	-0.00954127	2.10392e-05
2	1	0	0	1	385.874	-0.903391	-0.90385	-0.0214234	4	-0.00955778	1.93635e-05
2	1	0	1	1	386.634	-0.865375	-0.865775	-0.0200011	4	-0.00957356	1.73164e-05
2	1	0	1	1	387.395	-0.827359	-0.827782	-0.0182928	4	-0.0095881	1.51424e-05
2	1	0	0	1	388.155	-0.789343	-0.789784	-0.0162118	4	-0.00960113	1.28038e-05
2	1	0	0	1	388.915	-0.751327	-0.751726	-0.0139321	4	-0.00961261	1.04731e-05
2	1	0	0	1	389.676	-0.713311	-0.713758	-0.0110682	4	-0.00962212	7.89998e-06
2	1	0	1	1	390.436	-0.675295	-0.675735	-0.0083625	4	-0.00962942	5.65083e-06
2	1	0	1	1	391.196	-0.637279	-0.637721	-0.00586113	4	-0.00963478	3.73776e-06
2	1	0	0	1	391.989	-0.597663	-0.598073	-0.00365313	4	-0.00963848	2.18484e-06
2	1	0	0	1	392.749	-0.559647	-0.560067	-0.00196916	4	-0.00964057	1.10286e-06
2	1	0	0	1	393.509	-0.521631	-0.522038	-0.000641372	4	-0.00964152	3.34821e-07
2	1	0	1	1	394.27	-0.483615	-0.484017	5.25862e-05	4	-0.00964169	-2.54526e-08
2	1	0	1	1	395.03	-0.445599	-0.44603	0.000419775	4	-0.00964149	-1.87232e-07
2	1	0	0	1	395.79	-0.407583	-0.408033	0.00107233	4	-0.00964095	-4.37548e-07
2	1	0	0	1	396.551	-0.369567	-0.369977	0.00233016	4	-0.00963967	-8.62103e-07
2	1	0	0	1	397.311	-0.331551	-0.331958	0.00375435	4	-0.00963735	-1.24629e-06
2	1	0	1	1	398.071	-0.293535	-0.293922	0.00506011	4	-0.00963396	-1.48727e-06
2	1	0	1	1	398.832	-0.255519	-0.25598	0.00601014	4	-0.00962972	-1.53847e-06
2	1	0	0	1	399.592	-0.217503	-0.217923	0.00652098	4	-0.00962492	-1.42107e-06
2	1	0	0	1	400.352	-0.179487	-0.179912	0.00679638	4	-0.00961982	-1.22275e-06
2	1	0	0	1	401.113	-0.141471	-0.141887	0.00685732	4	-0.00961459	-9.72963e-07
2	1	0	1	1	401.873	-0.103455	-0.103893	0.00688727	4	-0.00960935	-7.1554e-07
2	1	0	1	1	402.633	-0.0654391	-0.0658285	0.00680689	4	-0.00960414	-4.48087e-07
2	1	0	0	1	403.393	-0.0274232	-0.0277935	0.00675957	4	-0.00959897	-1.87872e-07
2	1	0	0	1	404.154	0.0105928	0.0102553	0.00675042	4	-0.00959382	6.92274e-08
2	1	0	0	1	404.914	0.0486088	0.0482711	0.00669903	4	-0.00958869	3.2337e-07
2	1	0	1	1	405.674	0.0866247	0.0862859	0.0067638	4	-0.00958357	5.83621e-07
2	1	0	1	1	406.435	0.124641	0.124271	0.00679471	4	-0.00957841	8.44385e-07
2	1	0	0	1	407.195	0.162657	0.162303	0.00695892	4	-0.00957318	1.12945e-06
2	1	0	0	1	407.955	0.200673	0.200357	0.00706382	4	-0.00956784	1.41529e-06
2	1	0	0	1	408.716	0.238689	0.238334	0.00723851	4	-0.00956239	1.72518e-06
2	1	0	1	1	409.476	0.276704	0.276335	0.00742132	4	-0.00955681	2.05077e-06
2	1	0	1	1	410.236	0.31472	0.314438	0.00759332	4	-0.00955109	2.38763e-06
2	1	0	0	1	410.997	0.352736	0.352397	0.00787515	4	-0.0095452	2.77518e-06
2	1	0	0	1	411.757	0.390752	0.390446	0.00805614	4	-0.00953914	3.14549e-06
2	1	0	1	1	412.517	0.428764	0.428436	0.00826314	4	-0.00953291	3.54023e-06
2	1	0	1	1	413.278	0.466784	0.466473	0.00843415	4	-0.00952655	3.93431e-06
2	1	0	1	1	414.038	0.5048	0.504508	0.00858278	4	-0.00952006	4.33008e-06
2	1	0	0	1	414.798	0.542816	0.542506	0.00885469	4	-0.00951342	4.80372e-06
2	1	0	0	1	415.559	0.580832	0.580538	0.00911228	4	-0.00950658	5.29002e-06
2	1	0	1	1	416.319	0.618848	0.618516	0.00952451	4	-0.00949949	5.89106e-06
2	1	0	1	1	417.079	0.656864	0.656566	0.0100492	4	-0.00949205	6.59799e-06
2	1	0	1	1	417.872	0.696481	0.696135	0.0106595	4	-0.00948382	7.42045e-06
2	1	0	0	1	418.632	0.734497	0.7342	0.0114495	4	-0.00947539	8.40623e-06
2	1	0	0	1	419.392	0.772513	0.772154	0.0122692	4	-0.00946635	9.4737e-06
2	1	0	0	1	420.153	0.810529	0.810164	0.0132305	4	-0.00945662	1.07189e-05
2	1	0	1	1	420.913	0.848544	0.848213	0.0142635	4	-0.00944615	1.20985e-05
2	1	0	1	1	421.673	0.88656	0.88625	0.0154646	4	-0.00943481	1.37055e-05
2	1	0	0	1	422.433	0.924576	0.924273	0.0167924	4	-0.00942252	1.55208e-05
2	1	0	0	1	423.194	0.962592	0.962278	0.018241	4	-0.00940919	1.75529e-05
2	1	0	0	1	423.954	1.00061	1.00027	0.019792	4	-0.00939469	1.97974e-05
2	1	0	1	1	424.714	1.03862	1.03836	0.0214987	4	-0.00937898	2.23233e-05
2	1	0	1	1	425.475	1.07664	1.07632	0.0233969	4	-0.0093619	2.51826e-05
2	1	0	0	1	426.235	1.11466	1.11434	0.0253718	4	-0.00934335	2.82729e-05
2	1	0	0	1	426.995	1.15267	1.1524	0.0276724	4	-0.00932315	3.18898e-05
2	1	0	0	1	427.756	1.19069	1.19039	0.030408	4	-0.00930107	3.61975e-05
2	0	0	1	1	428.474	1.17338	1.17308	0.0220507	4	-0.00928157	2.58673e-05
2	0	0	1	1	429.235	1.13536	1.13508	0.0156098	4	-0.00926755	1.77183e-05
2	0	0	0	1	429.995	1.09735	1.09707	0.0118671	4	-0.00925725	1.3019e-05
2	0	0	0	1	430.755	1.05933	1.05906	0.00946214	4	-0.00924923	1.0021e-05
2	0	0	0	1	431.516	1.02132	1.02104	0.00768185	4	-0.00924279	7.8435e-06
2	0	0	1	1	432.276	0.983301	0.983043	0.00633614	4	-0.00923751	6.2287e-06
2	0	0	1	1	433.036	0.945285	0.94493	0.00528992	4	-0.00923314	4.99861e-06
2	0	0	0	1	433.829	0.905668	0.905361	0.00434273	4	-0.00922936	3.93174e-06
2	0	0	0	1	434.589	0.867653	0.867266	0.00363814	4	-0.00922635	3.15523e-06
2	0	0	0	1	435.349	0.829637	0.829322	0.0029986	4	-0.00922386	2.48681e-06
2	0	0	1	1	436.11	0.791621	0.791258	0.00245312	4	-0.0092218	1.94105e-06
2	0	0	1	1	436.87	0.753605	0.75324	0.00199299	4	-0.00922012	1.5012e-06
2	0	0	0	1	437.63	0.715589	0.715223	0.00154537	4	-0.00921879	1.10529e-06
2	0	0	0	1	438.391	0.677573	0.677284	0.00119648	4	-0.00921777	8.10354e-07
2	0	0	0	1	439.151	0.639557	0.639217	0.000792197	4	-0.00921703	5.06386e-07
2	0	0	1	1	439.911	0.601541	0.601238	0.000472581	4	-0.00921657	2.84134e-07
2	0	0	1	1	440.672	0.563525	0.563183	0.000132516	4	-0.00921636	7.4631e-08
2	0	0	0	1	441.432	0.525509	0.525155	-0.000204997	4	-0.00921639	-1.07655e-07
2	0	0	0	1	442.192	0.487493	0.487105	-0.000492306	4	-0.00921667	-2.39805e-07
2	0	0	0	1	442.953	0.449477	0.449128	-0.000833669	4	-0.00921718	-3.74424e-07
2	0	0	1	1	443.713	0.411461	0.41112	-0.00109144	4	-0.00921793	-4.4871e-07
2	0	0	1	1	444.473	0.373445	0.373076	-0.00145663	4	-0.00921892	-5.43434e-07
2	0	0	0	1	445.233	0.335429	0.335093	-0.00175664	4	-0.00922015	-5.88639e-07
2	0	0	0	1	445.994	0.297413	0.297075	-0.0020998	4	-0.00922164	-6.238e-07
2	0	0	0	1	446.754	0.259397	0.259029	-0.00243373	4	-0.00922336	-6.30406e-07
2	0	0	1	1	447.514	0.221381	0.221005	-0.00267799	4	-0.00922532	-5.9185e-07
2	0	0	1	1	448.275	0.183365	0.183045	-0.00301583	4	-0.00922751	-5.52032e-07
2	0	0	0	1	449.035	0.145349	0.145006	-0.00325581	4	-0.00922991	-4.72114e-07
2	0	0	0	1	449.795	0.107333	0.106962	-0.00355033	4	-0.00923251	-3.7975e-07
2	0	0	0	1	450.556	0.0693175	0.0689366	-0.0037883	4	-0.00923531	-2.61153e-07
2	0	0	1	1	451.316	0.0313015	0.0309228	-0.00398496	4	-0.00923827	-1.23226e-07
2	0	0	1	1	452.076	-0.00671446	-0.0071482	-0.00421571	4	-0.0092414	3.01347e-08
2	0	0	0	1	452.837	-0.0447304	-0.0451556	-0.00444643	4	-0.00924471	2.00781e-07
2	0	0	0	1	453.597	-0.0827464	-0.0832065	-0.004738	4	-0.00924822	3.94232e-07
2	0	0	0	1	454.357	-0.120762	-0.121198	-0.00495291	4	-0.00925191	6.00283e-07
2	0	0	1	1	455.118	-0.158778	-0.159233	-0.00525575	4	-0.00925581	8.36889e-07
2	0	0	1	1	455.878	-0.196794	-0.197234	-0.00549747	4	-0.00925989	1.08429e-06
2	0	0	0	1	456.638	-0.23481	-0.235273	-0.00604063	4	-0.00926428	1.4212e-06
2	0	0	0	1	457.399	-0.272826	-0.27329	-0.00705513	4	-0.00926922	1.9281e-06
2	0	0	0	1	458.159	-0.310842	-0.311253	-0.00854567	4	-0.00927513	2.65986e-06
2	0	0	1	1	458.951	-0.350459	-0.350872	-0.0105407	4	-0.00928269	3.69843e-06
2	0	0	1	1	459.712	-0.388475	-0.388877	-0.0127145	4	-0.00929155	4.94439e-06
2	0	0	0	1	460.472	-0.426491	-0.426957	-0.0151059	4	-0.00930215	6.44955e-06
2	0	0	0	1	461.232	-0.464507	-0.464967	-0.0178109	4	-0.00931465	8.28146e-06
2	0	0	0	1	461.993	-0.502523	-0.502943	-0.0209673	4	-0.00932939	1.05454e-05
2	0	0	1	1	462.753	-0.540539	-0.54099	-0.0248174	4	-0.00934682	1.3426e-05
2	0	0	1	1	463.513	-0.578555	-0.579023	-0.0285243	4	-0.00936716	1.65162e-05
2	0	0	0	1	464.273	-0.616571	-0.616985	-0.0318496	4	-0.0093902	1.96507e-05
2	0	0	0	1	465.034	-0.654587	-0.655036	-0.0347385	4	-0.00941559	2.2755e-05
2	0	0	0	1	465.794	-0.692603	-0.693048	-0.0371393	4	-0.009443	2.57393e-05
2	0	0	1	1	466.554	-0.730619	-0.731063	-0.0391296	4	-0.00947202	2.86062e-05
2	0	0	1	1	467.315	-0.768635	-0.769037	-0.0409846	4	-0.00950254	3.15187e-05
2	0	0	0	1	468.075	-0.806651	-0.80702	-0.0423247	4	-0.00953434	3.41569e-05
2	0	0	0	1	468.835	-0.844666	-0.845102	-0.0432414	4	-0.00956691	3.65434e-05
2	0	0	0	1	469.596	-0.882683	-0.883101	-0.0442126	4	-0.0096002	3.90442e-05
2	0	0	1	1	470.356	-0.920699	-0.921097	-0.0452587	4	-0.00963419	4.16876e-05
2	0	0	1	1	471.116	-0.958714	-0.959077	-0.0461996	4	-0.00966895	4.4309e-05
2	0	0	0	1	471.877	-0.99673	-0.997113	-0.0466304	4	-0.00970423	4.64958e-05
2	0	0	0	1	472.637	-1.03475	-1.03516	-0.0475844	4	-0.0097401	4.92573e-05
2	0	0	0	1	473.397	-1.07276	-1.07312	-0.0482117	4	-0.00977659	5.17371e-05
2	0	0	1	1	474.158	-1.11078	-1.11116	-0.0486945	4	-0.00981338	5.41075e-05
2	0	0	1	1	474.918	-1.14879	-1.14918	-0.0492841	4	-0.00985073	5.66362e-05
2	0	0	0	1	475.678	-1.18681	-1.1872	-0.0502628	4	-0.00988876	5.96719e-05
2	0	0	0	1	476.439	-1.22483	-1.22522	-0.0511894	4	-0.00992721	6.27184e-05
2	0	0	0	1	477.199	-1.26284	-1.26319	-0.0514858	4	-0.00996622	6.50363e-05
2	0	0	1	1	477.959	-1.30086	-1.3012	-0.0524648	4	-0.0100058	6.82674e-05
2	0	0	1	1	478.72	-1.33887	-1.33925	-0.0539006	4	-0.0100464	7.21861e-05
2	0	0	0	1	479.48	-1.37689	-1.37724	-0.0550707	4	-0.0100878	7.58453e-05
2	0	0	0	1	480.24	-1.41491	-1.41527	-0.0569054	4	-0.0101304	8.05364e-05
2	0	0	0	1	481.001	-1.45292	-1.45328	-0.0591183	4	-0.0101745	8.59154e-05
2	0	0	1	1	481.761	-1.49094	-1.49127	-0.061608	4	-0.0102204	9.18743e-05
2	0	0	1	1	482.521	-1.52895	-1.5293	-0.0650467	4	-0.0102684	9.94761e-05
2	0	0	0	1	483.281	-1.56697	-1.56732	-0.069059	4	-0.0103194	0.000108237
2	0	0	0	1	484.042	-1.60499	-1.60538	-0.0747775	4	-0.0103741	0.000120046
2	0	0	1	1	484.802	-1.643	-1.64344	-0.0816265	4	-0.0104335	0.000134148
2	0	0	1	1	485.562	-1.68102	-1.68143	-0.0891228	4	-0.0104983	0.000149854
2	0	0	1	1	486.323	-1.71903	-1.71941	-0.098644	4	-0.0105695	0.00016961
2	0	0	0	1	487.115	-1.75865	-1.75907	-0.107939	4	-0.0106514	0.000189872
2	0	0	0	1	487.875	-1.79667	-1.79707	-0.118848	4	-0.0107377	0.000213579
2	0	0	0	1	488.636	-1.83468	-1.83508	-0.130862	4	-0.0108329	0.000240142
2	0	0	1	1	489.396	-1.8727	-1.87309	-0.143041	4	-0.0109368	0.000267929
2	0	0	1	1	490.156	-1.91071	-1.91109	-0.157349	4	-0.0110508	0.000300709
2	0	0	0	1	490.917	-1.94873	-1.94912	-0.172818	4	-0.0111764	0.000336844
2	0	0	0	1	491.677	-1.98675	-1.98712	-0.193015	4	-0.0113153	0.000383543
2	1	0	0	0	492.414	-1.97644	-1.9768	-0.172179	4	-0.0114539	0.000340365
2	1	0	0	0	493.174	-1.93843	-1.93884	-0.145044	4	-0.0115739	0.000281218
2	1	0	0	0	493.935	-1.90041	-1.9008	-0.12668	4	-0.0116771	0.000240794
2	1	0	1	0	494.695	-1.86239	-1.86279	-0.110635	4	-0.0117671	0.000206091
2	1	0	1	0	495.455	-1.82438	-1.82478	-0.0988188	4	-0.0118466	0.000180322
2	1	0	0	0	496.215	-1.78636	-1.78675	-0.0874791	4	-0.0119174	0.000156303
2	1	0	0	0	496.976	-1.74835	-1.74876	-0.0790421	4	-0.0119806	0.000138226
2	1	0	0	0	497.736	-1.71033	-1.71076	-0.0721465	4	-0.0120378	0.000123426
2	1	0	1	0	498.496	-1.67231	-1.67278	-0.0658534	4	-0.0120903	0.000110158
2	1	0	1	0	499.257	-1.6343	-1.63472	-0.0595455	4	-0.0121379	9.73406e-05
2	1	0	0	0	500.017	-1.59628	-1.59668	-0.0550942	4	-0.0121814	8.7968e-05
2	1	0	0	0	500.777	-1.55827	-1.55867	-0.0522497	4	-0.012222	8.14399e-05
2	1	0	0	0	501.57	-1.51865	-1.51901	-0.0474548	4	-0.0122616	7.20843e-05
2	1	0	1	0	502.33	-1.48063	-1.48096	-0.0443224	4	-0.0122964	6.564e-05
2	1	0	1	0	503.09	-1.44262	-1.44297	-0.0416184	4	-0.012329	6.00542e-05
2	1	0	0	0	503.851	-1.4046	-1.40495	-0.039117	4	-0.0123596	5.49574e-05
2	1	0	0	0	504.611	-1.36659	-1.36701	-0.0376871	4	-0.0123889	5.15187e-05
2	1	0	0	0	505.371	-1.32857	-1.32897	-0.0354022	4	-0.0124165	4.70484e-05
2	1	0	1	0	506.132	-1.29055	-1.29092	-0.0341319	4	-0.0124429	4.40616e-05
2	1	0	1	0	506.892	-1.25254	-1.25294	-0.0324569	4	-0.0124682	4.06666e-05
2	1	0	0	0	507.652	-1.21452	-1.2149	-0.0286866	4	-0.0124914	3.48514e-05
2	1	0	0	0	508.413	-1.17651	-1.1769	-0.0265821	4	-0.0125123	3.12846e-05
2	1	0	0	0	509.173	-1.13849	-1.13887	-0.025115	4	-0.0125319	2.86028e-05
2	1	0	1	0	509.933	-1.10047	-1.10088	-0.0246811	4	-0.0125508	2.71709e-05
2	1	0	1	0	510.694	-1.06246	-1.06286	-0.0244371	4	-0.0125694	2.59733e-05
2	1	0	0	0	511.454	-1.02444	-1.02489	-0.0243649	4	-0.012588	2.49713e-05
2	1	0	0	0	511.942	-0.999982	-1.00049	-0.0237015	4	-0.0125997	2.37132e-05