File: RDE_data/02262020_MnO2_RDE_50mVs_400rpm_ExtendedBounds_IncreasedFlow_C04.mpt
EC-Lab ASCII FILE
Nb header lines : 56

Cyclic Voltammetry

Run on channel : 4 (SN 35517)
User : CESL
CE vs. WE compliance from -10 V to 10 V
Electrode connection : standard
Ewe ctrl range : min = -2.50 V, max = 2.50 V
Safety Limits :
	Do not start on E overload
Acquisition started on : 02/26/2020 14:23:34
Technique started on : 02/26/2020 14:23:34
Saved on :
	File : 02262020_MnO2_RDE_50mVs_400rpm_ExtendedBounds_IncreasedFlow_C04.mpr
	Directory : C:\Users\CESL\Documents\EC-Lab\Data\Undergrad\Katelyn\EChem\
	Host : 169.254.217.189
Device : VSP (SN 1724172417241724)
Address : USB
EC-Lab for windows v11.16 (software)
Internet server v11.16 (firmware)
Command interpretor v11.16 (firmware)
Electrode material : Au/Pd
Initial state :
Electrolyte : NaCl (0.2M)
Comments : Fe(CN)63-/Fe(CN)64- 5.10-3 M
Reference electrode : SCE Saturated Calomel Electrode (0.241 V)
Electrode surface area : 0.001 cm²
Characteristic mass : 0.001 g
Equivalent Weight : 0.000 g/eq.
Density : 0.000 g/cm3
Cycle Definition : Charge/Discharge alternance
Ei (V)              -1.000
vs.                 Ref
dE/dt               50.000
dE/dt unit          mV/s
E1 (V)              1.200
vs.                 Ref
Step percent        50
N                   10
E range min (V)     -2.500
E range max (V)     2.500
I Range             Auto
I Range min         Unset
I Range max         Unset
I Range init        Unset
Bandwidth           5
E2 (V)              -2.000
vs.                 Ref
nc cycles           3
Reverse Scan        1
Ef (V)              -1.000
vs.                 Ref

mode	ox/red	error	control changes	counter inc.	time/s	control/V	Ewe/V	<I>/mA	cycle number	(Q-Qo)/C	P/W
2	1	0	0	0	0.000000000000000E+000	-0.99698	-0.99744	-0.264734	1	0.0000000E+000	0.000264056
2	1	0	1	0	0.7512	-0.959415	-0.959879	-0.0758501	1	-8.94302e-05	7.28069e-05
2	1	0	1	0	1.5116	-0.921399	-0.921812	-0.0595925	1	-0.000139671	5.49331e-05
2	1	0	0	0	2.2718	-0.883383	-0.88382	-0.0526499	1	-0.000182132	4.6533e-05
2	1	0	0	0	3.0622	-0.843866	-0.844337	-0.0471508	1	-0.000221583	3.98111e-05
2	1	0	0	0	3.8226	-0.80585	-0.806277	-0.0418638	1	-0.000255385	3.37538e-05
2	1	0	1	0	4.5828	-0.767834	-0.768205	-0.0362242	1	-0.000285069	2.78276e-05
2	1	0	1	0	5.3432	-0.729818	-0.73022	-0.0302422	1	-0.000310282	2.20834e-05
2	1	0	0	0	6.1034	-0.691802	-0.692224	-0.0245406	1	-0.00033102	1.69876e-05
2	1	0	0	0	6.8638	-0.653786	-0.654219	-0.0195501	1	-0.000347684	1.279e-05
2	1	0	0	0	7.6242	-0.61577	-0.616223	-0.0153936	1	-0.000360874	9.48588e-06
2	1	0	1	0	8.3844	-0.577754	-0.578188	-0.012009	1	-0.000371199	6.94349e-06
2	1	0	1	0	9.1448	-0.539738	-0.54015	-0.00933888	1	-0.000379208	5.0444e-06
2	1	0	0	0	9.905	-0.501722	-0.502207	-0.00741171	1	-0.000385479	3.72221e-06
2	1	0	0	0	10.6654	-0.463706	-0.464159	-0.00642136	1	-0.00039067	2.98053e-06
2	1	0	0	0	11.4258	-0.42569	-0.426131	-0.00554924	1	-0.000395214	2.3647e-06
2	1	0	1	0	12.218	-0.386074	-0.386492	-0.00385367	1	-0.000398966	1.48941e-06
2	1	0	1	0	12.9784	-0.348058	-0.348461	-0.00174511	1	-0.000401096	6.08102e-07
2	1	0	0	0	13.7386	-0.310042	-0.310428	0.000393974	1	-0.000401584	-1.223e-07
2	1	0	0	0	14.499	-0.272026	-0.272431	0.0021804	1	-0.000400555	-5.94008e-07
2	1	0	0	0	15.2594	-0.23401	-0.23443	0.00336874	1	-0.000398384	-7.89734e-07
2	1	0	1	0	16.0196	-0.195994	-0.196394	0.00402098	1	-0.000395534	-7.89695e-07
2	1	0	1	0	16.78	-0.157978	-0.158377	0.00439276	1	-0.000392306	-6.95712e-07
2	1	0	0	0	17.5402	-0.119962	-0.12034	0.0046774	1	-0.000388833	-5.62878e-07
2	1	0	0	0	18.3006	-0.0819461	-0.0823642	0.00492143	1	-0.000385159	-4.0535e-07
2	1	0	0	0	19.061	-0.0439301	-0.0443261	0.00513703	1	-0.000381314	-2.27704e-07
2	1	0	1	0	19.8212	-0.00591412	-0.0063038	0.0053138	1	-0.000377321	-3.34972e-08
2	1	0	1	0	20.5816	0.0321018	0.0317683	0.00545756	1	-0.000373214	1.73377e-07
2	1	0	0	0	21.3418	0.0701178	0.069834	0.0055588	1	-0.000369022	3.88193e-07
2	1	0	0	0	22.1022	0.108134	0.107803	0.00566455	1	-0.00036474	6.10656e-07
2	1	0	0	0	22.8626	0.14615	0.145834	0.00581686	1	-0.000360367	8.48295e-07
2	1	0	1	0	23.6228	0.184166	0.183825	0.00598697	1	-0.000355875	1.10056e-06
2	1	0	1	0	24.3832	0.222182	0.221857	0.00611297	1	-0.000351273	1.35621e-06
2	1	0	0	0	25.1434	0.260198	0.259838	0.00624074	1	-0.000346565	1.62158e-06
2	1	0	0	0	25.9038	0.298214	0.297844	0.00636344	1	-0.000341759	1.89531e-06
2	1	0	0	0	26.6642	0.336229	0.335922	0.00654022	1	-0.000336844	2.197e-06
2	1	0	1	0	27.4244	0.374245	0.373935	0.00674229	1	-0.000331779	2.52118e-06
2	1	0	1	0	28.1848	0.412261	0.411959	0.00694663	1	-0.000326557	2.86172e-06
2	1	0	0	0	28.945	0.450277	0.44998	0.00713235	1	-0.000321185	3.20941e-06
2	1	0	0	0	29.7054	0.488293	0.487979	0.00732273	1	-0.000315657	3.57334e-06
2	1	0	0	0	30.4658	0.526309	0.525978	0.00755163	1	-0.000309987	3.97199e-06
2	1	0	1	0	31.226	0.564325	0.564077	0.007852	1	-0.00030412	4.42914e-06
2	1	0	1	0	31.9864	0.602341	0.602017	0.00825532	1	-0.000297989	4.96984e-06
2	1	0	0	0	32.7466	0.640357	0.640027	0.00874181	1	-0.000291528	5.595e-06
2	1	0	0	0	33.507	0.678373	0.678036	0.00934431	1	-0.000284658	6.33578e-06
2	1	0	0	0	34.2674	0.716389	0.716078	0.0100371	1	-0.000277299	7.18732e-06
2	1	0	1	0	35.0596	0.756006	0.755694	0.0108136	1	-0.00026902	8.17173e-06
2	1	0	1	0	35.82	0.794022	0.7937	0.0117043	1	-0.000260423	9.28972e-06
2	1	0	0	0	36.5802	0.832038	0.831728	0.0126348	1	-0.000251133	1.05087e-05
2	1	0	0	0	37.3406	0.870054	0.869692	0.0137046	1	-0.000241085	1.19187e-05
2	1	0	0	0	38.101	0.908069	0.90776	0.0149414	1	-0.000230142	1.35632e-05
2	1	0	1	0	38.8612	0.946086	0.945858	0.0163195	1	-0.000218244	1.54359e-05
2	1	0	1	0	39.6216	0.984101	0.98384	0.0177617	1	-0.000205258	1.74747e-05
2	1	0	0	0	40.3818	1.02212	1.0218	0.0193529	1	-0.000191119	1.97748e-05
2	1	0	0	0	41.1422	1.06013	1.05988	0.0211316	1	-0.000175698	2.23969e-05
2	1	0	0	0	41.9026	1.09815	1.09785	0.0230664	1	-0.00015888	2.53235e-05
2	1	0	1	0	42.6628	1.13617	1.13587	0.0251831	1	-0.000140532	2.86047e-05
2	1	0	1	0	43.4232	1.17418	1.17389	0.0277037	1	-0.00012044	3.25212e-05
2	0	0	0	0	44.1319	1.19038	1.19008	0.0255497	1	-0.000100408	3.04061e-05
2	0	0	0	0	44.8922	1.15237	1.15208	0.0172042	1	-8.45866e-05	1.98207e-05
2	0	0	0	0	45.6526	1.11436	1.11411	0.0127234	1	-7.34003e-05	1.41753e-05
2	0	0	1	0	46.4128	1.07634	1.07602	0.00985355	1	-6.49444e-05	1.06026e-05
2	0	0	1	0	47.1732	1.03832	1.03808	0.00781532	1	-5.83077e-05	8.11292e-06
2	0	0	0	0	47.9334	1.00031	0.999976	0.00632221	1	-5.29941e-05	6.32206e-06
2	0	0	0	0	48.6938	0.962292	0.961981	0.0051344	1	-4.8683e-05	4.93919e-06
2	0	0	0	0	49.4862	0.922676	0.922361	0.00414091	1	-4.5041e-05	3.81942e-06
2	0	0	1	0	50.2464	0.88466	0.884342	0.00337142	1	-4.22096e-05	2.98149e-06
2	0	0	1	0	51.0068	0.846644	0.846295	0.00270738	1	-3.99156e-05	2.29124e-06
2	0	0	1	0	51.7672	0.808628	0.808267	0.00218301	1	-3.80766e-05	1.76445e-06
2	0	0	0	0	52.5274	0.770612	0.770299	0.00168535	1	-3.66281e-05	1.29823e-06
2	0	0	0	0	53.2878	0.732596	0.732281	0.00125567	1	-3.55261e-05	9.19507e-07
2	0	0	1	0	54.048	0.69458	0.694262	0.000862326	1	-3.47378e-05	5.9868e-07
2	0	0	1	0	54.8084	0.656564	0.656204	0.000511648	1	-3.42364e-05	3.35745e-07
2	0	0	0	0	55.5687	0.618552	0.618213	0.000166974	1	-3.3999e-05	1.03226e-07
2	0	0	0	0	56.329	0.580532	0.580193	-0.000176424	1	-3.4015e-05	-1.0236e-07
2	0	0	0	0	57.0894	0.542516	0.542198	-0.000473751	1	-3.42721e-05	-2.56867e-07
2	0	0	1	0	57.8496	0.5045	0.504127	-0.000796333	1	-3.47685e-05	-4.01453e-07
2	0	0	1	0	58.61	0.466484	0.466161	-0.0010801	1	-3.54987e-05	-5.035e-07
2	0	0	0	0	59.3703	0.428468	0.428121	-0.00139586	1	-3.64576e-05	-5.97598e-07
2	0	0	0	0	60.1306	0.390452	0.390113	-0.00169038	1	-3.76466e-05	-6.59437e-07
2	0	0	0	0	60.891	0.352436	0.352051	-0.00200648	1	-3.90679e-05	-7.06385e-07
2	0	0	1	0	61.6512	0.31442	0.314068	-0.00232257	1	-4.07217e-05	-7.29446e-07
2	0	0	1	0	62.4116	0.276404	0.275994	-0.0026216	1	-4.26087e-05	-7.23547e-07
2	0	0	0	0	63.1719	0.238385	0.237998	-0.00291866	1	-4.47266e-05	-6.94635e-07
2	0	0	0	0	63.9322	0.200372	0.199992	-0.00322168	1	-4.70741e-05	-6.4431e-07
2	0	0	0	0	64.6926	0.162357	0.161982	-0.00349427	1	-4.96448e-05	-5.6601e-07
2	0	0	1	0	65.4528	0.124341	0.123961	-0.00380163	1	-5.24305e-05	-4.71255e-07
2	0	0	1	0	66.2132	0.0863246	0.0859476	-0.00407833	1	-5.5442e-05	-3.50522e-07
2	0	0	0	0	66.9734	0.0483086	0.047919	-0.00434157	1	-5.86477e-05	-2.08043e-07
2	0	0	0	0	67.7338	0.0102927	0.00992325	-0.00459725	1	-6.2058e-05	-4.56196e-08
2	0	0	0	0	68.4942	-0.0277233	-0.0281626	-0.00491482	1	-6.5675e-05	1.38414e-07
2	0	0	1	0	69.2544	-0.0657393	-0.066187	-0.00521283	1	-6.9523e-05	3.45022e-07
2	0	0	1	0	70.0148	-0.103755	-0.104222	-0.00553405	1	-7.36233e-05	5.76769e-07
2	0	0	0	0	70.775	-0.141771	-0.142236	-0.00590308	1	-7.79833e-05	8.39629e-07
2	0	0	0	0	71.5354	-0.179787	-0.180225	-0.00625727	1	-8.26149e-05	1.12772e-06
2	0	0	0	0	72.2958	-0.217803	-0.218257	-0.00674481	1	-8.75653e-05	1.4721e-06
2	0	0	1	0	73.056	-0.255819	-0.256267	-0.00766008	1	-9.30325e-05	1.96303e-06
2	0	0	1	0	73.8164	-0.293835	-0.294278	-0.00910681	1	-9.93928e-05	2.67994e-06
2	0	0	0	0	74.6087	-0.33345	-0.33388	-0.0111487	1	-0.00010742	3.72232e-06
2	0	0	0	0	75.369	-0.371468	-0.371925	-0.0136522	1	-0.000116862	5.07762e-06
2	0	0	0	0	76.1294	-0.409484	-0.409915	-0.0164676	1	-0.000128318	6.75032e-06
2	0	0	1	0	76.8896	-0.4475	-0.447965	-0.0196861	1	-0.00014205	8.81869e-06
2	0	0	1	0	77.65	-0.485516	-0.485939	-0.0235275	1	-0.000158449	1.14329e-05
2	0	0	0	0	78.4103	-0.523533	-0.523954	-0.0280663	1	-0.000178051	1.47054e-05
2	0	0	0	0	79.1706	-0.561548	-0.561971	-0.0331348	1	-0.000201318	1.86208e-05
2	0	0	0	0	79.931	-0.599564	-0.600041	-0.038281	1	-0.000228486	2.29702e-05
2	0	0	1	0	80.6912	-0.637579	-0.638046	-0.0433372	1	-0.000259526	2.76512e-05
2	0	0	1	0	81.4516	-0.675596	-0.676032	-0.0485243	1	-0.000294482	3.2804e-05
2	0	0	0	0	82.2118	-0.713611	-0.714033	-0.0533974	1	-0.000333328	3.81275e-05
2	0	0	0	0	82.9722	-0.751627	-0.752081	-0.0576288	1	-0.000375633	4.33415e-05
2	0	0	0	0	83.7326	-0.789643	-0.790047	-0.061401	1	-0.000421022	4.85097e-05
2	0	0	1	0	84.4928	-0.827659	-0.828047	-0.0645931	1	-0.000469004	5.34861e-05
2	0	0	1	0	85.2532	-0.865675	-0.866093	-0.0674874	1	-0.000519357	5.84503e-05
2	0	0	0	0	86.0134	-0.903691	-0.904109	-0.0695398	1	-0.000571455	6.28715e-05
2	0	0	0	0	86.7738	-0.941707	-0.942091	-0.0714362	1	-0.000625093	6.72994e-05
2	0	0	0	0	87.5342	-0.979723	-0.980149	-0.0731474	1	-0.000680058	7.16954e-05
2	0	0	1	0	88.2944	-1.01774	-1.01813	-0.0746931	1	-0.000736266	7.6047e-05
2	0	0	1	0	89.0548	-1.05576	-1.05616	-0.0761099	1	-0.000793552	8.03843e-05
2	0	0	0	0	89.815	-1.09377	-1.09418	-0.0774877	1	-0.000851909	8.47857e-05
2	0	0	0	0	90.5754	-1.13179	-1.13223	-0.0787655	1	-0.000911266	8.91808e-05
2	0	0	0	0	91.3358	-1.1698	-1.17021	-0.0798033	1	-0.000971554	9.33863e-05
2	0	0	1	0	92.096	-1.20782	-1.20821	-0.0806749	1	-0.00103255	9.74725e-05
2	0	0	1	0	92.8564	-1.24584	-1.24623	-0.0818499	1	-0.00109441	0.000102004
2	0	0	0	0	93.6166	-1.28385	-1.28427	-0.0831028	1	-0.00115714	0.000106727
2	0	0	0	0	94.377	-1.32187	-1.32226	-0.0843168	1	-0.00122086	0.000111489
2	0	0	0	0	95.1374	-1.35988	-1.36027	-0.0853816	1	-0.00128548	0.000116142
2	0	0	1	0	95.8976	-1.3979	-1.3983	-0.0872633	1	-0.00135126	0.00012202
2	0	0	1	0	96.658	-1.43592	-1.43629	-0.0893544	1	-0.00141833	0.000128339
2	0	0	0	0	97.4182	-1.47393	-1.47426	-0.0916177	1	-0.00148718	0.000135068
2	0	0	0	0	98.1786	-1.51195	-1.51231	-0.0949524	1	-0.00155806	0.000143598
2	0	0	0	0	98.939	-1.54996	-1.55028	-0.0985011	1	-0.00163159	0.000152705
2	0	0	1	0	99.7312	-1.58958	-1.58997	-0.10364	1	-0.00171172	0.000164784
2	0	0	1	0	100.492	-1.6276	-1.62798	-0.110353	1	-0.00179311	0.000179652
2	0	0	0	0	101.252	-1.66561	-1.66603	-0.117935	1	-0.00187986	0.000196484
2	0	0	0	0	102.012	-1.70363	-1.70403	-0.127307	1	-0.00197308	0.000216935
2	0	0	0	0	102.773	-1.74164	-1.74205	-0.138281	1	-0.00207407	0.000240891
2	0	0	1	0	103.533	-1.77966	-1.78005	-0.150802	1	-0.00218393	0.000268435
2	0	0	1	0	104.293	-1.81768	-1.81809	-0.164446	1	-0.00230362	0.000298978
2	0	0	0	0	105.053	-1.85569	-1.85609	-0.178536	1	-0.00243376	0.000331379
2	0	0	0	0	105.814	-1.89371	-1.89411	-0.193483	1	-0.00257477	0.00036648
2	0	0	0	0	106.574	-1.93172	-1.93209	-0.209705	1	-0.00272762	0.000405169
2	0	0	1	0	107.334	-1.96974	-1.9701	-0.228155	1	-0.00289376	0.000449487
2	1	0	0	1	108.071	-1.99345	-1.99384	-0.23401	1	-0.00306798	0.000466579
2	1	0	1	1	108.832	-1.95543	-1.95579	-0.201276	1	-0.00323216	0.000393654
2	1	0	1	1	109.592	-1.91742	-1.91776	-0.178289	1	-0.00337571	0.000341916
2	1	0	1	1	110.352	-1.8794	-1.87979	-0.161223	1	-0.00350447	0.000303065
2	1	0	0	1	111.113	-1.84139	-1.84177	-0.147249	1	-0.00362147	0.000271198
2	1	0	0	1	111.873	-1.80337	-1.80375	-0.136296	1	-0.00372907	0.000245845
2	1	0	1	1	112.633	-1.76535	-1.76574	-0.126059	1	-0.00382864	0.000222589
2	1	0	1	1	113.394	-1.72734	-1.72773	-0.116951	1	-0.00392123	0.00020206
2	1	0	1	1	114.154	-1.68932	-1.68979	-0.109826	1	-0.00400755	0.000185583
2	1	0	0	1	114.914	-1.65131	-1.65172	-0.103402	1	-0.00408857	0.000170791
2	1	0	0	1	115.675	-1.61329	-1.61369	-0.0972095	1	-0.00416481	0.000156866
2	1	0	1	1	116.435	-1.57527	-1.57566	-0.0913613	1	-0.00423653	0.000143955
2	1	0	1	1	117.195	-1.53726	-1.53766	-0.0863254	1	-0.00430419	0.000132739
2	1	0	1	1	117.956	-1.49924	-1.49959	-0.0817941	1	-0.004368	0.000122658
2	1	0	0	1	118.716	-1.46123	-1.46162	-0.0768818	1	-0.00442813	0.000112372
2	1	0	0	1	119.476	-1.42321	-1.4236	-0.0730044	1	-0.00448505	0.000103929
2	1	0	1	1	120.236	-1.38519	-1.38562	-0.0697204	1	-0.00453921	9.6606e-05
2	1	0	1	1	120.997	-1.34718	-1.34761	-0.066791	1	-0.00459105	9.00081e-05
2	1	0	0	1	121.757	-1.30916	-1.3096	-0.0645565	1	-0.00464082	8.45433e-05
2	1	0	0	1	122.517	-1.27115	-1.27158	-0.0618048	1	-0.00468885	7.85899e-05
2	1	0	0	1	123.278	-1.23313	-1.23356	-0.0588426	1	-0.00473464	7.25859e-05
2	1	0	1	1	124.038	-1.19511	-1.19557	-0.0561105	1	-0.00477825	6.7084e-05
2	1	0	1	1	124.798	-1.1571	-1.15756	-0.0545532	1	-0.00482022	6.31483e-05
2	1	0	0	1	125.559	-1.11908	-1.11955	-0.0533284	1	-0.00486122	5.97037e-05
2	1	0	0	1	126.319	-1.08107	-1.08154	-0.0523509	1	-0.00490142	5.66196e-05
2	1	0	0	1	127.079	-1.04305	-1.04348	-0.0513051	1	-0.0049408	5.35359e-05
2	1	0	1	1	127.84	-1.00503	-1.00545	-0.0499388	1	-0.0049793	5.02109e-05
2	1	0	1	1	128.606	-0.966718	-0.967106	-0.0479579	2	-0.00501682	4.63804e-05
2	1	0	0	1	129.366	-0.9287	-0.929171	-0.0453395	2	-0.00505227	4.21282e-05
2	1	0	0	1	130.127	-0.890686	-0.891103	-0.0422942	2	-0.00508568	3.76885e-05
2	1	0	0	1	130.887	-0.85267	-0.853102	-0.038314	2	-0.00511635	3.26857e-05
2	1	0	1	1	131.647	-0.814654	-0.815112	-0.0335818	2	-0.00514369	2.73729e-05
2	1	0	1	1	132.408	-0.776638	-0.777076	-0.028408	2	-0.00516725	2.20752e-05
2	1	0	0	1	133.168	-0.738622	-0.739047	-0.0229135	2	-0.0051867	1.69342e-05
2	1	0	0	1	133.928	-0.700606	-0.701028	-0.0176255	2	-0.00520205	1.2356e-05
2	1	0	0	1	134.689	-0.66259	-0.663034	-0.0130673	2	-0.00521368	8.6641e-06
2	1	0	1	1	135.449	-0.624574	-0.625003	-0.00936944	2	-0.00522214	5.85592e-06
2	1	0	1	1	136.209	-0.586558	-0.586985	-0.00641274	2	-0.00522807	3.76418e-06
2	1	0	1	1	137.002	-0.546941	-0.547353	-0.00402838	2	-0.00523211	2.20495e-06
2	1	0	0	1	137.762	-0.508925	-0.509321	-0.00245577	2	-0.0052345	1.25078e-06
2	1	0	0	1	138.522	-0.47091	-0.471295	-0.00177242	2	-0.00523605	8.35333e-07
2	1	0	1	1	139.282	-0.432894	-0.433293	-0.00122227	2	-0.0052372	5.29601e-07
2	1	0	1	1	140.043	-0.394878	-0.395302	-1.64288e-05	2	-0.00523771	6.49434e-09
2	1	0	0	1	140.803	-0.356865	-0.357249	0.00183345	2	-0.00523701	-6.54997e-07
2	1	0	0	1	141.563	-0.318846	-0.319245	0.00370144	2	-0.00523488	-1.18167e-06
2	1	0	0	1	142.324	-0.28083	-0.281218	0.00512251	2	-0.00523147	-1.44054e-06
2	1	0	1	1	143.084	-0.242814	-0.243214	0.00607851	2	-0.00522715	-1.47838e-06
2	1	0	1	1	143.844	-0.204798	-0.205186	0.00659556	2	-0.00522231	-1.35331e-06
2	1	0	0	1	144.605	-0.166781	-0.167212	0.0068875	2	-0.00521715	-1.15168e-06
2	1	0	0	1	145.365	-0.128766	-0.129189	0.00695761	2	-0.00521187	-8.98846e-07
2	1	0	0	1	146.125	-0.0907498	-0.09112	0.00695205	2	-0.00520656	-6.33471e-07
2	1	0	1	1	146.886	-0.0527338	-0.0531572	0.0069441	2	-0.00520126	-3.69129e-07
2	1	0	1	1	147.646	-0.0147178	-0.0151381	0.00691892	2	-0.00519597	-1.0474e-07
2	1	0	0	1	148.406	0.0232981	0.0229159	0.00690314	2	-0.00519069	1.58192e-07
2	1	0	0	1	149.167	0.0613141	0.0609668	0.00691286	2	-0.00518543	4.21455e-07
2	1	0	0	1	149.927	0.0993301	0.0989922	0.00693652	2	-0.00518016	6.86662e-07
2	1	0	1	1	150.687	0.137346	0.136991	0.00698928	2	-0.00517486	9.57469e-07
2	1	0	1	1	151.448	0.175362	0.175031	0.00711293	2	-0.00516949	1.24499e-06
2	1	0	0	1	152.208	0.213378	0.21303	0.00722701	2	-0.00516403	1.53957e-06
2	1	0	0	1	152.968	0.251394	0.251044	0.00740133	2	-0.00515846	1.85806e-06
2	1	0	0	1	153.729	0.28941	0.289097	0.00757942	2	-0.00515275	2.19119e-06
2	1	0	1	1	154.489	0.327426	0.327083	0.00775777	2	-0.0051469	2.53744e-06
2	1	0	1	1	155.249	0.365442	0.36507	0.00797724	2	-0.0051409	2.91225e-06
2	1	0	0	1	156.009	0.403458	0.403152	0.00815408	2	-0.00513476	3.28733e-06
2	1	0	0	1	156.77	0.441474	0.441106	0.00830589	2	-0.00512848	3.66378e-06
2	1	0	0	1	157.53	0.47949	0.47915	0.00846645	2	-0.00512208	4.0567e-06
2	1	0	1	1	158.29	0.517506	0.517153	0.00869376	2	-0.00511554	4.496e-06
2	1	0	1	1	159.051	0.555522	0.555171	0.00898057	2	-0.00510882	4.98575e-06
2	1	0	0	1	159.811	0.593537	0.593247	0.0092851	2	-0.00510187	5.50836e-06
2	1	0	0	1	160.571	0.631553	0.631207	0.00976125	2	-0.00509464	6.16137e-06
2	1	0	0	1	161.364	0.67117	0.670811	0.0103047	2	-0.00508667	6.91249e-06
2	1	0	1	1	162.124	0.709186	0.708861	0.0109667	2	-0.00507857	7.77389e-06
2	1	0	1	1	162.884	0.747202	0.746874	0.0117178	2	-0.00506992	8.7517e-06
2	1	0	0	1	163.645	0.785221	0.784928	0.0125503	2	-0.00506067	9.85108e-06
2	1	0	0	1	164.405	0.823234	0.822923	0.0135003	2	-0.00505072	1.11097e-05
2	1	0	0	1	165.165	0.86125	0.86093	0.0145165	2	-0.00504003	1.24977e-05
2	1	0	1	1	165.926	0.899266	0.898961	0.0156632	2	-0.00502852	1.40806e-05
2	1	0	1	1	166.686	0.937282	0.936956	0.0169671	2	-0.00501607	1.58974e-05
2	1	0	0	1	167.446	0.975298	0.975001	0.0183921	2	-0.00500259	1.79323e-05
2	1	0	0	1	168.207	1.01331	1.01307	0.0199905	2	-0.00498796	2.02518e-05
2	1	0	0	1	168.967	1.05133	1.05105	0.0217395	2	-0.00497205	2.28492e-05
2	1	0	1	1	169.727	1.08935	1.08903	0.0235684	2	-0.0049548	2.56666e-05
2	1	0	1	1	170.488	1.12736	1.12706	0.0256015	2	-0.0049361	2.88546e-05
2	1	0	0	1	171.248	1.16538	1.1651	0.0280103	2	-0.00491572	3.26348e-05
2	0	0	0	1	171.953	1.19939	1.19915	0.0299363	2	-0.00489509	3.5898e-05
2	0	0	0	1	172.713	1.16138	1.16111	0.0195454	2	-0.00487691	2.26944e-05
2	0	0	1	1	173.473	1.12336	1.1231	0.0144113	2	-0.00486422	1.61853e-05
2	0	0	1	1	174.234	1.08534	1.0851	0.011219	2	-0.00485461	1.21738e-05
2	0	0	0	1	174.994	1.04733	1.04703	0.00901109	2	-0.00484701	9.43489e-06
2	0	0	0	1	175.754	1.00931	1.00902	0.00738154	2	-0.00484086	7.44814e-06
2	0	0	0	1	176.515	0.971296	0.970992	0.00609458	2	-0.00483579	5.91779e-06
2	0	0	1	1	177.275	0.93328	0.932987	0.00507492	2	-0.00483159	4.73484e-06
2	0	0	1	1	178.067	0.893664	0.893352	0.00415271	2	-0.00482797	3.70983e-06
2	0	0	1	1	178.828	0.855648	0.855351	0.00345091	2	-0.00482509	2.95174e-06
2	0	0	0	1	179.588	0.817632	0.817339	0.00285169	2	-0.00482271	2.3308e-06
2	0	0	0	1	180.348	0.779616	0.779314	0.00233148	2	-0.00482075	1.81696e-06
2	0	0	1	1	181.108	0.7416	0.741249	0.00184619	2	-0.00481917	1.36849e-06
2	0	0	1	1	181.869	0.703584	0.703262	0.00143079	2	-0.00481794	1.00622e-06
2	0	0	1	1	182.629	0.665568	0.665211	0.0010226	2	-0.00481703	6.80242e-07
2	0	0	0	1	183.389	0.627552	0.627174	0.000673373	2	-0.0048164	4.22322e-07
2	0	0	0	1	184.15	0.589536	0.589194	0.00031508	2	-0.00481605	1.85643e-07
2	0	0	1	1	184.91	0.55152	0.551169	-4.1514e-05	2	-0.00481596	-2.28812e-08
2	0	0	1	1	185.67	0.513504	0.513123	-0.00037715	2	-0.00481613	-1.93525e-07
2	0	0	1	1	186.431	0.475488	0.475122	-0.000702196	2	-0.00481655	-3.33629e-07
2	0	0	0	1	187.191	0.437472	0.437121	-0.00101359	2	-0.00481722	-4.43059e-07
2	0	0	0	1	187.951	0.399456	0.399074	-0.00133069	2	-0.00481813	-5.31043e-07
2	0	0	1	1	188.712	0.36144	0.361124	-0.00165638	2	-0.00481927	-5.9816e-07
2	0	0	1	1	189.472	0.323424	0.323045	-0.00196571	2	-0.00482067	-6.35012e-07
2	0	0	0	1	190.232	0.285411	0.285071	-0.0022972	2	-0.00482231	-6.54865e-07
2	0	0	0	1	190.993	0.247392	0.24702	-0.00259156	2	-0.00482418	-6.40167e-07
2	0	0	0	1	191.753	0.209376	0.209005	-0.00291816	2	-0.00482629	-6.09908e-07
2	0	0	1	1	192.513	0.17136	0.171022	-0.00319843	2	-0.00482863	-5.47e-07
2	0	0	1	1	193.274	0.133344	0.133004	-0.00346908	2	-0.00483118	-4.614e-07
2	0	0	0	1	194.034	0.0953284	0.0949682	-0.00373608	2	-0.00483394	-3.54809e-07
2	0	0	0	1	194.794	0.0573124	0.0569251	-0.00400908	2	-0.0048369	-2.28217e-07
2	0	0	0	1	195.555	0.0192965	0.0189061	-0.00423223	2	-0.00484005	-8.0015e-08
2	0	0	1	1	196.315	-0.0187195	-0.0191554	-0.00449943	2	-0.00484338	8.61883e-08
2	0	0	1	1	197.075	-0.0567355	-0.0571882	-0.0047922	2	-0.00484692	2.74057e-07
2	0	0	0	1	197.835	-0.0947558	-0.0951828	-0.00511266	2	-0.00485069	4.86637e-07
2	0	0	0	1	198.596	-0.132767	-0.133226	-0.00539271	2	-0.0048547	7.18452e-07
2	0	0	0	1	199.356	-0.170783	-0.171215	-0.00574595	2	-0.00485894	9.83791e-07
2	0	0	1	1	200.116	-0.208799	-0.209222	-0.00616738	2	-0.00486347	1.29035e-06
2	0	0	1	1	200.877	-0.246815	-0.247311	-0.00694836	2	-0.00486845	1.71841e-06
2	0	0	0	1	201.637	-0.284831	-0.285231	-0.00828277	2	-0.00487422	2.3625e-06
2	0	0	0	1	202.397	-0.322847	-0.323277	-0.0100757	2	-0.00488119	3.25724e-06
2	0	0	0	1	203.19	-0.362464	-0.362938	-0.0125167	2	-0.00489013	4.5428e-06
2	0	0	1	1	203.95	-0.40048	-0.400919	-0.0151946	2	-0.00490068	6.09181e-06
2	0	0	1	1	204.71	-0.438496	-0.438908	-0.0183233	2	-0.00491342	8.04223e-06
2	0	0	0	1	205.471	-0.476507	-0.47694	-0.0219477	2	-0.00492869	1.04677e-05
2	0	0	0	1	206.231	-0.514528	-0.514927	-0.0263647	2	-0.00494702	1.35759e-05
2	0	0	0	1	206.991	-0.552544	-0.552952	-0.0313841	2	-0.00496898	1.73539e-05
2	0	0	1	1	207.752	-0.59056	-0.590942	-0.0365527	2	-0.00499483	2.16005e-05
2	0	0	1	1	208.512	-0.628576	-0.628988	-0.0417053	2	-0.00502463	2.62322e-05
2	0	0	0	1	209.272	-0.666591	-0.667023	-0.0468541	2	-0.00505834	3.12527e-05
2	0	0	0	1	210.033	-0.704608	-0.705006	-0.0519474	2	-0.00509597	3.66232e-05
2	0	0	0	1	210.793	-0.742624	-0.743019	-0.0565688	2	-0.00513731	4.20317e-05
2	0	0	1	1	211.553	-0.78064	-0.78107	-0.0604808	2	-0.00518189	4.72397e-05
2	0	0	1	1	212.314	-0.818656	-0.819061	-0.063993	2	-0.00522932	5.24142e-05
2	0	0	0	1	213.074	-0.856675	-0.857106	-0.0666927	2	-0.00527904	5.71627e-05
2	0	0	0	1	213.834	-0.894688	-0.895079	-0.0691034	2	-0.00533071	6.1853e-05
2	0	0	0	1	214.595	-0.932704	-0.93311	-0.0711647	2	-0.00538401	6.64045e-05
2	0	0	1	1	215.355	-0.97072	-0.971127	-0.0725585	2	-0.00543871	7.04635e-05
2	0	0	1	1	216.115	-1.00874	-1.00914	-0.0743709	2	-0.00549453	7.50507e-05
2	0	0	0	1	216.875	-1.04675	-1.04715	-0.075671	2	-0.00555154	7.92385e-05
2	0	0	0	1	217.636	-1.08477	-1.08518	-0.0771893	2	-0.00560969	8.3764e-05
2	0	0	0	1	218.396	-1.12278	-1.12316	-0.078388	2	-0.00566882	8.80427e-05
2	0	0	1	1	219.156	-1.1608	-1.16115	-0.0794788	2	-0.00572883	9.22871e-05
2	0	0	1	1	219.917	-1.19882	-1.19919	-0.0805561	2	-0.00578969	9.66019e-05
2	0	0	0	1	220.677	-1.23683	-1.23721	-0.0815779	2	-0.00585141	0.000100929
2	0	0	0	1	221.437	-1.27485	-1.2752	-0.0827303	2	-0.0059139	0.000105497
2	0	0	0	1	222.198	-1.31286	-1.31325	-0.0840725	2	-0.00597726	0.000110408
2	0	0	1	1	222.958	-1.35088	-1.35125	-0.0852663	2	-0.00604167	0.000115216
2	0	0	1	1	223.718	-1.3889	-1.38926	-0.08661	2	-0.00610708	0.000120324
2	0	0	0	1	224.479	-1.42691	-1.42727	-0.0885971	2	-0.00617372	0.000126452
2	0	0	0	1	225.239	-1.46493	-1.4653	-0.0910879	2	-0.00624204	0.000133471
2	0	0	0	1	225.999	-1.50294	-1.50328	-0.0938846	2	-0.00631237	0.000141135
2	0	0	1	1	226.76	-1.54096	-1.54132	-0.097548	2	-0.00638504	0.000150353
2	0	0	1	1	227.52	-1.57898	-1.57935	-0.10192	2	-0.00646076	0.000160968
2	0	0	0	1	228.31	-1.61849	-1.61886	-0.107855	2	-0.00654379	0.000174602
2	0	0	0	1	229.071	-1.65651	-1.6569	-0.115373	2	-0.00662853	0.000191161
2	0	0	0	1	229.831	-1.69452	-1.69497	-0.123811	2	-0.00671972	0.000209856
2	0	0	1	1	230.591	-1.73254	-1.73294	-0.134782	2	-0.00681818	0.00023357
2	0	0	1	1	231.352	-1.77056	-1.77094	-0.146352	2	-0.0069251	0.000259181
2	0	0	0	1	232.112	-1.80857	-1.80895	-0.159895	2	-0.00704153	0.000289242
2	0	0	0	1	232.872	-1.84659	-1.84699	-0.173566	2	-0.00716819	0.000320575
2	0	0	0	1	233.633	-1.8846	-1.88494	-0.188294	2	-0.0073056	0.000354922
2	0	0	1	1	234.393	-1.92262	-1.92298	-0.205079	2	-0.00745469	0.000394363
2	0	0	1	1	235.153	-1.96064	-1.96101	-0.222002	2	-0.00761656	0.000435349
2	0	0	0	1	235.913	-1.99865	-1.999	-0.242118	2	-0.00779254	0.000483995
2	1	0	1	0	236.652	-1.96444	-1.96483	-0.205218	2	-0.00795594	0.000403218
2	1	0	1	0	237.413	-1.92642	-1.92679	-0.181435	2	-0.00810211	0.000349586
2	1	0	0	0	238.173	-1.88841	-1.88879	-0.163302	2	-0.0082327	0.000308444
2	1	0	0	0	238.933	-1.85039	-1.85075	-0.148935	2	-0.00835113	0.000275641
2	1	0	1	0	239.694	-1.81237	-1.81273	-0.136739	2	-0.00845948	0.00024787
2	1	0	1	0	240.454	-1.77436	-1.77475	-0.126483	2	-0.00855955	0.000224476
2	1	0	1	0	241.214	-1.73634	-1.73672	-0.117564	2	-0.00865231	0.000204175
2	1	0	0	0	241.975	-1.69833	-1.69872	-0.109511	2	-0.00873876	0.000186027
2	1	0	0	0	242.735	-1.66031	-1.66074	-0.10319	2	-0.00881964	0.000171371
2	1	0	1	0	243.495	-1.62229	-1.62269	-0.0970413	2	-0.00889579	0.000157468
2	1	0	1	0	244.256	-1.58428	-1.58466	-0.091457	2	-0.00896745	0.000144928
2	1	0	1	0	245.016	-1.54626	-1.54663	-0.0863958	2	-0.00903498	0.000133622
2	1	0	0	0	245.776	-1.50825	-1.50865	-0.0814847	2	-0.0090987	0.000122932
2	1	0	0	0	246.537	-1.47023	-1.4706	-0.0770864	2	-0.00915891	0.000113363
2	1	0	1	0	247.297	-1.43221	-1.43263	-0.0730938	2	-0.00921591	0.000104717
2	1	0	1	0	248.057	-1.3942	-1.39459	-0.0696686	2	-0.00927009	9.7159e-05
2	1	0	1	0	248.818	-1.35618	-1.35658	-0.0667687	2	-0.00932184	9.05771e-05
2	1	0	0	0	249.578	-1.31817	-1.31858	-0.0642273	2	-0.00937155	8.46887e-05
2	1	0	0	0	250.338	-1.28015	-1.28056	-0.0620735	2	-0.00941963	7.94889e-05
2	1	0	1	0	251.098	-1.24213	-1.24254	-0.059006	2	-0.0094657	7.33174e-05
2	1	0	1	0	251.859	-1.20412	-1.20452	-0.0564072	2	-0.00950944	6.79438e-05
2	1	0	1	0	252.619	-1.1661	-1.16652	-0.0547424	2	-0.00955158	6.38583e-05
2	1	0	0	0	253.379	-1.12809	-1.1285	-0.0534612	2	-0.00959268	6.03311e-05
2	1	0	0	0	254.14	-1.09007	-1.09048	-0.0525966	2	-0.00963292	5.73556e-05
2	1	0	1	0	254.9	-1.05205	-1.05247	-0.0514278	2	-0.00967249	5.41262e-05
2	1	0	1	0	255.66	-1.01404	-1.01449	-0.0502502	2	-0.00971116	5.09783e-05
2	1	0	0	0	256.395	-0.977322	-0.977805	-0.0485015	3	-0.0097474	4.7425e-05
2	1	0	0	0	257.187	-0.937706	-0.938126	-0.0462411	3	-0.00978491	4.338e-05
2	1	0	0	0	257.947	-0.89969	-0.90009	-0.0430656	3	-0.00981886	3.87629e-05
2	1	0	1	0	258.708	-0.861674	-0.862099	-0.039372	3	-0.00985023	3.39426e-05
2	1	0	1	0	259.468	-0.823658	-0.824116	-0.0349394	3	-0.00987851	2.87941e-05
2	1	0	0	0	260.228	-0.785642	-0.786058	-0.0297528	3	-0.00990307	2.33874e-05
2	1	0	0	0	260.989	-0.747626	-0.748094	-0.0243382	3	-0.00992359	1.82072e-05
2	1	0	0	0	261.749	-0.70961	-0.710044	-0.0189044	3	-0.00993996	1.34229e-05
2	1	0	1	0	262.509	-0.671594	-0.672036	-0.0142158	3	-0.00995245	9.55357e-06
2	1	0	1	0	263.27	-0.633578	-0.633997	-0.0102506	3	-0.00996164	6.49884e-06
2	1	0	0	0	264.03	-0.595558	-0.595996	-0.00706483	3	-0.00996814	4.21061e-06
2	1	0	0	0	264.822	-0.555945	-0.556367	-0.00452868	3	-0.00997267	2.51961e-06
2	1	0	0	0	265.583	-0.517929	-0.518342	-0.00275311	3	-0.00997536	1.42705e-06
2	1	0	1	0	266.343	-0.479913	-0.480314	-0.00188588	3	-0.00997705	9.05814e-07
2	1	0	1	0	267.103	-0.441897	-0.442323	-0.00134646	3	-0.00997826	5.95571e-07
2	1	0	1	0	267.864	-0.403881	-0.40434	-0.000248703	3	-0.00997891	1.00561e-07
2	1	0	0	0	268.624	-0.365865	-0.366259	0.00144436	3	-0.00997848	-5.29008e-07
2	1	0	0	0	269.384	-0.327849	-0.328238	0.00330389	3	-0.00997664	-1.08446e-06
2	1	0	1	0	270.144	-0.289833	-0.290219	0.00490777	3	-0.00997349	-1.42433e-06
2	1	0	1	0	270.905	-0.251817	-0.252226	0.00592955	3	-0.00996934	-1.49559e-06
2	1	0	1	0	271.665	-0.213801	-0.214236	0.00652145	3	-0.00996456	-1.39713e-06
2	1	0	0	0	272.425	-0.175785	-0.176228	0.00678805	3	-0.00995948	-1.19625e-06
2	1	0	0	0	273.186	-0.13777	-0.138163	0.00691959	3	-0.00995425	-9.56034e-07
2	1	0	1	0	273.946	-0.0997535	-0.100132	0.00692885	3	-0.00994896	-6.93797e-07
2	1	0	1	0	274.706	-0.0617376	-0.0621411	0.00693373	3	-0.00994367	-4.3087e-07
2	1	0	0	0	275.467	-0.0237227	-0.024085	0.00691122	3	-0.00993838	-1.66457e-07
2	1	0	0	0	276.227	0.0142944	0.0139564	0.00694065	3	-0.00993311	9.68665e-08
2	1	0	0	0	276.987	0.0523103	0.0519691	0.00690334	3	-0.00992785	3.5876e-07
2	1	0	1	0	277.748	0.0903263	0.0899977	0.0069142	3	-0.00992259	6.22262e-07
2	1	0	1	0	278.508	0.128342	0.127983	0.00695868	3	-0.00991731	8.90591e-07
2	1	0	0	0	279.268	0.166361	0.165983	0.00706042	3	-0.00991196	1.17191e-06
2	1	0	0	0	280.029	0.204374	0.204056	0.00718568	3	-0.00990653	1.46628e-06
2	1	0	0	0	280.789	0.24239	0.242034	0.00733778	3	-0.00990099	1.77599e-06
2	1	0	1	0	281.549	0.280406	0.280102	0.00752099	3	-0.00989533	2.10665e-06
2	1	0	1	0	282.31	0.318422	0.31807	0.0077119	3	-0.00988953	2.45292e-06
2	1	0	0	0	283.07	0.356438	0.356069	0.00789643	3	-0.00988359	2.81168e-06
2	1	0	0	0	283.83	0.394454	0.394108	0.0080744	3	-0.0098775	3.18218e-06
2	1	0	0	0	284.591	0.43247	0.432129	0.00827765	3	-0.00987127	3.57701e-06
2	1	0	1	0	285.351	0.470486	0.47017	0.00841889	3	-0.00986491	3.95831e-06
2	1	0	1	0	286.111	0.508502	0.508193	0.00858809	3	-0.00985842	4.36441e-06
2	1	0	0	0	286.871	0.546518	0.546217	0.00885442	3	-0.00985177	4.83643e-06
2	1	0	0	0	287.632	0.584534	0.584239	0.00917306	3	-0.0098449	5.35926e-06
2	1	0	0	0	288.392	0.62255	0.6223	0.00958744	3	-0.00983776	5.96627e-06
2	1	0	1	0	289.152	0.660566	0.660244	0.0101274	3	-0.00983026	6.68656e-06
2	1	0	1	0	289.945	0.700182	0.699901	0.0107688	3	-0.00982196	7.53707e-06
2	1	0	0	0	290.705	0.738195	0.7379	0.0114913	3	-0.00981347	8.47943e-06
2	1	0	0	0	291.465	0.776214	0.7759	0.0123264	3	-0.00980439	9.56405e-06
2	1	0	0	0	292.226	0.81423	0.81389	0.0132551	3	-0.00979463	1.07882e-05
2	1	0	1	0	292.986	0.852246	0.851906	0.0142811	3	-0.00978412	1.21662e-05
2	1	0	1	0	293.746	0.890262	0.889927	0.0153774	3	-0.00977279	1.36848e-05
2	1	0	0	0	294.507	0.928278	0.927952	0.0166898	3	-0.00976056	1.54873e-05
2	1	0	0	0	295.267	0.966294	0.965981	0.0180447	3	-0.00974732	1.74308e-05
2	1	0	0	0	296.027	1.00431	1.00402	0.0196354	3	-0.00973295	1.97143e-05
2	1	0	1	0	296.788	1.04233	1.04201	0.0213442	3	-0.00971734	2.22409e-05
2	1	0	1	0	297.548	1.08034	1.08004	0.0231957	3	-0.00970039	2.50523e-05
2	1	0	0	0	298.308	1.11836	1.11811	0.0252296	3	-0.00968197	2.82094e-05
2	1	0	0	0	299.069	1.15637	1.15608	0.0275335	3	-0.00966192	3.18309e-05
2	1	0	0	0	299.829	1.19439	1.19411	0.0302089	3	-0.00963997	3.60726e-05
2	0	0	1	0	300.534	1.17038	1.17007	0.0213692	3	-0.00962161	2.50034e-05
2	0	0	1	0	301.294	1.13236	1.13205	0.0154498	3	-0.00960786	1.749e-05
2	0	0	1	0	302.054	1.09435	1.0941	0.0118981	3	-0.0095976	1.30178e-05
2	0	0	0	0	302.815	1.05633	1.05607	0.00949769	3	-0.00958957	1.00302e-05
2	0	0	0	0	303.575	1.01832	1.01798	0.00776071	3	-0.00958307	7.90023e-06
2	0	0	1	0	304.335	0.9803	0.979998	0.00641557	3	-0.00957775	6.28725e-06
2	0	0	1	0	305.096	0.942284	0.941994	0.00533875	3	-0.00957334	5.02907e-06
2	0	0	1	0	305.888	0.902667	0.90232	0.00438287	3	-0.00956952	3.95475e-06
2	0	0	0	0	306.648	0.864651	0.864295	0.00363782	3	-0.00956649	3.14415e-06
2	0	0	0	0	307.409	0.826635	0.826315	0.00303062	3	-0.00956397	2.50425e-06
2	0	0	1	0	308.169	0.788619	0.788335	0.00247576	3	-0.00956189	1.95173e-06
2	0	0	1	0	308.929	0.750603	0.750215	0.00199089	3	-0.00956021	1.4936e-06
2	0	0	1	0	309.69	0.712587	0.71223	0.00154034	3	-0.00955888	1.09708e-06
2	0	0	0	0	310.45	0.674572	0.674176	0.00112217	3	-0.00955788	7.5654e-07
2	0	0	0	0	311.21	0.636556	0.636243	0.000753886	3	-0.00955718	4.79654e-07
2	0	0	1	0	311.97	0.59854	0.598185	0.000412428	3	-0.00955677	2.46708e-07
2	0	0	1	0	312.731	0.560524	0.560202	4.62032e-05	3	-0.00955661	2.58831e-08
2	0	0	1	0	313.491	0.522508	0.522143	-0.000273792	3	-0.00955671	-1.42959e-07
2	0	0	0	0	314.251	0.484492	0.484145	-0.00060639	3	-0.00955705	-2.93581e-07
2	0	0	0	0	315.012	0.446476	0.446086	-0.000913769	3	-0.00955764	-4.07619e-07
2	0	0	1	0	315.772	0.40846	0.408078	-0.00123492	3	-0.00955846	-5.03944e-07
2	0	0	1	0	316.532	0.370444	0.370063	-0.00152695	3	-0.00955953	-5.65068e-07
2	0	0	1	0	317.293	0.332428	0.332065	-0.00186902	3	-0.00956083	-6.20634e-07
2	0	0	0	0	318.053	0.294412	0.294084	-0.00217466	3	-0.00956238	-6.39531e-07
2	0	0	0	0	318.813	0.256396	0.256002	-0.00248862	3	-0.00956417	-6.37093e-07
2	0	0	1	0	319.574	0.21838	0.218015	-0.00279121	3	-0.00956619	-6.08526e-07
2	0	0	1	0	320.334	0.180364	0.180008	-0.00309337	3	-0.00956844	-5.56831e-07
2	0	0	1	0	321.094	0.142348	0.141967	-0.00337669	3	-0.00957091	-4.79379e-07
2	0	0	0	0	321.855	0.104332	0.10395	-0.00364674	3	-0.0095736	-3.7908e-07
2	0	0	0	0	322.615	0.0663162	0.0659069	-0.00389633	3	-0.00957648	-2.56795e-07
2	0	0	1	0	323.375	0.0283002	0.0279197	-0.00414483	3	-0.00957954	-1.15722e-07
2	0	0	1	0	324.136	-0.00971572	-0.0101566	-0.0043838	3	-0.00958279	4.45246e-08
2	0	0	0	0	324.896	-0.0477295	-0.0481769	-0.00464577	3	-0.00958623	2.23819e-07
2	0	0	0	0	325.656	-0.0857477	-0.0862202	-0.00495649	3	-0.0095899	4.2735e-07
2	0	0	0	0	326.417	-0.123764	-0.124219	-0.00526922	3	-0.00959378	6.54538e-07
2	0	0	1	0	327.177	-0.16178	-0.162218	-0.00553465	3	-0.0095979	8.97819e-07
2	0	0	1	0	327.937	-0.199796	-0.200233	-0.00591704	3	-0.00960226	1.18479e-06
2	0	0	0	0	328.697	-0.237814	-0.238296	-0.00657803	3	-0.00960699	1.56752e-06
2	0	0	0	0	329.458	-0.275828	-0.276292	-0.00769319	3	-0.0096124	2.12557e-06
2	0	0	0	0	330.218	-0.313844	-0.314272	-0.00940441	3	-0.00961888	2.95554e-06
2	0	0	1	0	331.01	-0.35346	-0.353859	-0.0116945	3	-0.00962722	4.13819e-06
2	0	0	1	0	331.771	-0.391476	-0.391913	-0.0142883	3	-0.00963712	5.59978e-06
2	0	0	1	0	332.531	-0.429492	-0.429978	-0.0172304	3	-0.00964911	7.40869e-06
2	0	0	0	0	333.291	-0.467508	-0.467934	-0.0206052	3	-0.00966349	9.64189e-06
2	0	0	0	0	334.052	-0.505524	-0.505954	-0.0247981	3	-0.00968074	1.25467e-05
2	0	0	1	0	334.812	-0.54354	-0.54399	-0.0297489	3	-0.00970147	1.61831e-05
2	0	0	1	0	335.572	-0.581556	-0.581989	-0.0349937	3	-0.00972609	2.03659e-05
2	0	0	1	0	336.333	-0.619572	-0.620032	-0.0401631	3	-0.00975471	2.49024e-05
2	0	0	0	0	337.093	-0.657588	-0.65801	-0.0454421	3	-0.0097873	2.99014e-05
2	0	0	0	0	337.853	-0.695604	-0.69606	-0.0506408	3	-0.00982386	3.52491e-05
2	0	0	1	0	338.614	-0.73362	-0.734068	-0.0553538	3	-0.00986418	4.06334e-05
2	0	0	1	0	339.374	-0.771636	-0.772077	-0.0595595	3	-0.00990794	4.59845e-05
2	0	0	0	0	340.134	-0.809649	-0.810082	-0.0628559	3	-0.0099546	5.09185e-05
2	0	0	0	0	340.895	-0.847668	-0.848089	-0.065908	3	-0.0100037	5.58958e-05
2	0	0	0	0	341.655	-0.885684	-0.886087	-0.068215	3	-0.0100548	6.04444e-05
2	0	0	1	0	342.415	-0.9237	-0.924098	-0.0703887	3	-0.0101076	6.5046e-05
2	0	0	1	0	343.176	-0.961716	-0.962145	-0.0720857	3	-0.0101618	6.93569e-05
2	0	0	0	0	343.936	-0.999732	-1.00014	-0.0735979	3	-0.0102172	7.36081e-05
2	0	0	0	0	344.696	-1.03775	-1.03812	-0.075118	3	-0.0102738	7.79817e-05
2	0	0	0	0	345.457	-1.07576	-1.07617	-0.0763068	3	-0.0103314	8.21191e-05
2	0	0	1	0	346.217	-1.11378	-1.11418	-0.0775794	3	-0.0103899	8.64374e-05
2	0	0	1	0	346.977	-1.1518	-1.15216	-0.0786441	3	-0.0104492	9.06105e-05
2	0	0	0	0	347.737	-1.18981	-1.19016	-0.0799309	3	-0.0105095	9.51304e-05
2	0	0	0	0	348.498	-1.22783	-1.22819	-0.0807217	3	-0.0105707	9.91417e-05
2	0	0	0	0	349.258	-1.26584	-1.26622	-0.0819876	3	-0.0106327	0.000103814
2	0	0	1	0	350.018	-1.30386	-1.30429	-0.0829693	3	-0.0106954	0.000108216
2	0	0	1	0	350.779	-1.34188	-1.34228	-0.0840846	3	-0.010759	0.000112865
2	0	0	0	0	351.539	-1.37989	-1.38026	-0.0857038	3	-0.0108236	0.000118294
2	0	0	0	0	352.299	-1.41791	-1.41828	-0.0874984	3	-0.0108895	0.000124097
2	0	0	0	0	353.06	-1.45592	-1.4563	-0.0897034	3	-0.0109569	0.000130635
2	0	0	1	0	353.82	-1.49394	-1.49434	-0.0923437	3	-0.0110262	0.000137993
2	0	0	1	0	354.58	-1.53196	-1.53232	-0.0959565	3	-0.0110977	0.000147036
2	0	0	0	0	355.341	-1.56997	-1.5703	-0.100286	3	-0.0111722	0.000157479
2	0	0	0	0	356.133	-1.60959	-1.60998	-0.105847	3	-0.0112538	0.000170412
2	0	0	0	0	356.893	-1.6476	-1.64801	-0.112924	3	-0.0113369	0.0001861
2	0	0	1	0	357.654	-1.68562	-1.68604	-0.12133	3	-0.011426	0.000204568
2	0	0	1	0	358.414	-1.72364	-1.72406	-0.131436	3	-0.0115221	0.000226604
2	0	0	0	0	359.174	-1.76165	-1.76206	-0.142769	3	-0.0116264	0.000251568
2	0	0	0	0	359.935	-1.79967	-1.80004	-0.1552	3	-0.0117398	0.000279365
2	0	0	0	0	360.695	-1.83768	-1.83805	-0.168791	3	-0.0118631	0.000310247
2	0	0	1	0	361.455	-1.8757	-1.87606	-0.183292	3	-0.0119968	0.000343868
2	0	0	1	0	362.216	-1.91372	-1.91412	-0.198764	3	-0.0121419	0.000380459
2	0	0	0	0	362.976	-1.95174	-1.95212	-0.216027	3	-0.0122991	0.000421711
2	0	0	0	0	363.736	-1.98975	-1.99013	-0.234917	3	-0.01247	0.000467516
2	1	0	1	1	364.473	-1.97344	-1.97378	-0.209995	3	-0.0126368	0.000414484
2	1	0	0	1	365.233	-1.93542	-1.93581	-0.184522	3	-0.0127859	0.0003572
2	1	0	0	1	365.994	-1.89741	-1.89781	-0.1661	3	-0.0129186	0.000315226
2	1	0	1	1	366.754	-1.85939	-1.85975	-0.150721	3	-0.0130384	0.000280303
2	1	0	1	1	367.514	-1.82138	-1.82176	-0.138477	3	-0.0131481	0.000252271
2	1	0	1	1	368.275	-1.78336	-1.78373	-0.128218	3	-0.0132493	0.000228706
2	1	0	0	1	369.035	-1.74534	-1.74572	-0.119108	3	-0.0133432	0.000207929
2	1	0	0	1	369.795	-1.70733	-1.70773	-0.111776	3	-0.0134309	0.000190883
2	1	0	1	1	370.556	-1.66931	-1.66972	-0.104841	3	-0.0135131	0.000175055
2	1	0	1	1	371.316	-1.6313	-1.63166	-0.0986156	3	-0.0135905	0.000160908
2	1	0	1	1	372.076	-1.59328	-1.5937	-0.0928656	3	-0.0136634	0.000148
2	1	0	0	1	372.837	-1.55527	-1.55568	-0.0878048	3	-0.0137321	0.000136597
2	1	0	0	1	373.597	-1.51725	-1.51763	-0.0828617	3	-0.013797	0.000125753
2	1	0	1	1	374.357	-1.47923	-1.4796	-0.0783633	3	-0.0138583	0.000115946
2	1	0	1	1	375.118	-1.44122	-1.44162	-0.0745767	3	-0.0139163	0.000107511
2	1	0	1	1	375.878	-1.4032	-1.40359	-0.0708649	3	-0.0139715	9.94655e-05
2	1	0	0	1	376.638	-1.36519	-1.3656	-0.0680393	3	-0.0140242	9.29144e-05
2	1	0	0	1	377.399	-1.32717	-1.32762	-0.0654288	3	-0.0140749	8.68648e-05
2	1	0	1	1	378.159	-1.28915	-1.28957	-0.0632358	3	-0.0141237	8.15472e-05
2	1	0	1	1	378.919	-1.25114	-1.25154	-0.0603247	3	-0.0141707	7.54987e-05
2	1	0	1	1	379.68	-1.21312	-1.21352	-0.057266	3	-0.0142152	6.94932e-05
2	1	0	0	1	380.44	-1.17511	-1.17548	-0.0552574	3	-0.0142579	6.49541e-05
2	1	0	0	1	381.2	-1.13709	-1.13752	-0.0539874	3	-0.0142994	6.14119e-05
2	1	0	1	1	381.96	-1.09907	-1.09954	-0.0530114	3	-0.01434	5.82882e-05
2	1	0	1	1	382.721	-1.06106	-1.0615	-0.0520172	3	-0.0143799	5.52162e-05
2	1	0	1	1	383.481	-1.02304	-1.02348	-0.0507546	3	-0.014419	5.19465e-05
2	1	0	0	1	384.215	-0.986326	-0.986725	-0.0491586	4	-0.0144556	4.8506e-05
2	1	0	0	1	385.008	-0.946709	-0.947109	-0.046837	4	-0.0144936	4.43598e-05
2	1	0	1	1	385.768	-0.908693	-0.909091	-0.0440585	4	-0.0145282	4.00532e-05
2	1	0	1	1	386.528	-0.870677	-0.871088	-0.04047	4	-0.0145604	3.52529e-05
2	1	0	1	1	387.289	-0.832661	-0.833071	-0.036092	4	-0.0145895	3.00672e-05
2	1	0	0	1	388.049	-0.794646	-0.79508	-0.0311059	4	-0.014615	2.47317e-05
2	1	0	0	1	388.809	-0.75663	-0.757074	-0.0256369	4	-0.0146366	1.9409e-05
2	1	0	1	1	389.57	-0.718614	-0.719066	-0.0202592	4	-0.014654	1.45677e-05
2	1	0	1	1	390.33	-0.680598	-0.68105	-0.0153084	4	-0.0146674	1.04258e-05
2	1	0	0	1	391.09	-0.642584	-0.642994	-0.0111063	4	-0.0146774	7.14126e-06
2	1	0	0	1	391.851	-0.604566	-0.604989	-0.0077164	4	-0.0146844	4.66833e-06
2	1	0	0	1	392.611	-0.56655	-0.566965	-0.00510621	4	-0.0146892	2.89504e-06
2	1	0	1	1	393.403	-0.526933	-0.527354	-0.00303947	4	-0.0146924	1.60288e-06
2	1	0	1	1	394.164	-0.488917	-0.489364	-0.00194774	4	-0.0146942	9.53153e-07
2	1	0	1	1	394.924	-0.450901	-0.451295	-0.00141755	4	-0.0146955	6.39734e-07
2	1	0	0	1	395.684	-0.412885	-0.413307	-0.000557354	4	-0.0146963	2.30358e-07
2	1	0	0	1	396.445	-0.374869	-0.375281	0.000961482	4	-0.0146962	-3.60826e-07
2	1	0	1	1	397.205	-0.336853	-0.337256	0.00282147	4	-0.0146947	-9.51559e-07
2	1	0	1	1	397.965	-0.298837	-0.299228	0.00444472	4	-0.0146919	-1.32998e-06
2	1	0	1	1	398.726	-0.260821	-0.261218	0.00565326	4	-0.014688	-1.47674e-06
2	1	0	0	1	399.486	-0.222805	-0.223218	0.00633931	4	-0.0146834	-1.41505e-06
2	1	0	0	1	400.246	-0.184789	-0.185188	0.00666745	4	-0.0146784	-1.23473e-06
2	1	0	1	1	401.006	-0.146773	-0.147168	0.00683216	4	-0.0146733	-1.00548e-06
2	1	0	1	1	401.767	-0.108757	-0.109201	0.00689635	4	-0.014668	-7.53091e-07
2	1	0	1	1	402.527	-0.0707414	-0.0711367	0.00689627	4	-0.0146628	-4.90578e-07
2	1	0	0	1	403.287	-0.0327254	-0.0331049	0.0068917	4	-0.0146575	-2.28149e-07
2	1	0	0	1	404.048	0.00529059	0.00494173	0.00688321	4	-0.0146522	3.4015e-08
2	1	0	1	1	404.808	0.0433065	0.0429491	0.00688372	4	-0.014647	2.9565e-07
2	1	0	1	1	405.568	0.0813225	0.0809629	0.00688888	4	-0.0146418	5.57743e-07
2	1	0	0	1	406.329	0.119335	0.118986	0.00694285	4	-0.0146365	8.26105e-07
2	1	0	0	1	407.089	0.157354	0.157012	0.00704568	4	-0.0146312	1.10625e-06
2	1	0	0	1	407.849	0.19537	0.195066	0.00717518	4	-0.0146257	1.39963e-06
2	1	0	1	1	408.61	0.233386	0.233058	0.00730974	4	-0.0146202	1.7036e-06
2	1	0	1	1	409.37	0.271402	0.271091	0.0074791	4	-0.0146146	2.02752e-06
2	1	0	0	1	410.13	0.309418	0.30909	0.00765613	4	-0.0146088	2.36643e-06
2	1	0	0	1	410.891	0.347434	0.347113	0.00787487	4	-0.0146029	2.73347e-06
2	1	0	0	1	411.651	0.38545	0.385093	0.00804357	4	-0.0145968	3.09752e-06
2	1	0	1	1	412.411	0.423466	0.423139	0.00823044	4	-0.0145906	3.48261e-06
2	1	0	1	1	413.172	0.461482	0.461182	0.00838538	4	-0.0145843	3.86719e-06
2	1	0	0	1	413.932	0.499501	0.499174	0.0085519	4	-0.0145778	4.26888e-06
2	1	0	0	1	414.692	0.537514	0.537186	0.00876963	4	-0.0145712	4.71093e-06
2	1	0	0	1	415.453	0.57553	0.575157	0.00907014	4	-0.0145644	5.21676e-06
2	1	0	1	1	416.213	0.613546	0.613195	0.0094557	4	-0.0145574	5.79819e-06
2	1	0	1	1	416.973	0.651562	0.651273	0.00996394	4	-0.01455	6.48924e-06
2	1	0	1	1	417.766	0.691179	0.690889	0.0105662	4	-0.0145418	7.3001e-06
2	1	0	0	1	418.526	0.729194	0.728818	0.0112773	4	-0.0145335	8.21911e-06
2	1	0	0	1	419.286	0.76721	0.766879	0.0120736	4	-0.0145246	9.25902e-06
2	1	0	1	1	420.046	0.805226	0.804866	0.0129651	4	-0.0145151	1.04352e-05
2	1	0	1	1	420.807	0.843242	0.842907	0.0139683	4	-0.0145048	1.1774e-05
2	1	0	1	1	421.567	0.881258	0.880931	0.0150885	4	-0.0144937	1.32919e-05
2	1	0	0	1	422.327	0.919274	0.918936	0.0163171	4	-0.0144818	1.49944e-05
2	1	0	0	1	423.088	0.95729	0.956984	0.0176954	4	-0.0144688	1.69342e-05
2	1	0	1	1	423.848	0.995306	0.994987	0.0192413	4	-0.0144547	1.91448e-05
2	1	0	1	1	424.608	1.03332	1.03297	0.020901	4	-0.0144394	2.15901e-05
2	1	0	0	1	425.369	1.07133	1.07105	0.022694	4	-0.0144228	2.43063e-05
2	1	0	0	1	426.129	1.10935	1.1091	0.0246878	4	-0.0144048	2.73812e-05
2	1	0	0	1	426.889	1.14737	1.14711	0.0270125	4	-0.0143851	3.09861e-05
2	1	0	1	1	427.65	1.18539	1.18513	0.0295945	4	-0.0143636	3.50734e-05
2	0	0	1	1	428.354	1.17938	1.17906	0.0234261	4	-0.0143438	2.76207e-05
2	0	0	1	1	429.115	1.14137	1.14111	0.0165056	4	-0.0143289	1.88348e-05
2	0	0	0	1	429.875	1.10335	1.10305	0.012582	4	-0.014318	1.38786e-05
2	0	0	0	1	430.635	1.06534	1.06502	0.00997586	4	-0.0143095	1.06245e-05
2	0	0	1	1	431.396	1.02732	1.02707	0.0081025	4	-0.0143027	8.3218e-06
2	0	0	1	1	432.156	0.989304	0.989013	0.00667644	4	-0.0142972	6.60309e-06
2	0	0	1	1	432.916	0.951288	0.951029	0.00554428	4	-0.0142926	5.27277e-06
2	0	0	0	1	433.709	0.911671	0.911355	0.00454448	4	-0.0142886	4.14163e-06
2	0	0	0	1	434.469	0.873655	0.873396	0.00379009	4	-0.0142855	3.31025e-06
2	0	0	1	1	435.229	0.835639	0.83532	0.00313501	4	-0.0142829	2.61873e-06
2	0	0	1	1	435.99	0.797623	0.797275	0.00257337	4	-0.0142807	2.05168e-06
2	0	0	1	1	436.75	0.759607	0.75927	0.0020737	4	-0.014279	1.5745e-06
2	0	0	0	1	437.51	0.721591	0.7212	0.0016493	4	-0.0142775	1.18947e-06
2	0	0	0	1	438.271	0.683575	0.683224	0.00124316	4	-0.0142765	8.49358e-07
2	0	0	1	1	439.031	0.645559	0.645238	0.00087202	4	-0.0142757	5.6266e-07
2	0	0	1	1	439.791	0.607543	0.6072	0.00051088	4	-0.0142752	3.10206e-07
2	0	0	1	1	440.552	0.569527	0.569181	0.000157746	4	-0.0142749	8.97859e-08
2	0	0	0	1	441.312	0.531511	0.531143	-0.000174291	4	-0.014275	-9.25736e-08
2	0	0	0	1	442.072	0.493495	0.493073	-0.000512788	4	-0.0142752	-2.52842e-07
2	0	0	1	1	442.832	0.45548	0.45509	-0.000840339	4	-0.0142758	-3.8243e-07
2	0	0	1	1	443.593	0.417464	0.417093	-0.0011547	4	-0.0142765	-4.81617e-07
2	0	0	1	1	444.353	0.379448	0.379094	-0.00147247	4	-0.0142775	-5.58206e-07
2	0	0	0	1	445.113	0.341432	0.341043	-0.00180058	4	-0.0142788	-6.14075e-07
2	0	0	0	1	445.874	0.303416	0.303028	-0.00211661	4	-0.0142803	-6.41394e-07
2	0	0	1	1	446.634	0.2654	0.26499	-0.00243263	4	-0.014282	-6.44624e-07
2	0	0	1	1	447.394	0.227384	0.226977	-0.00273563	4	-0.014284	-6.20925e-07
2	0	0	1	1	448.155	0.189368	0.188959	-0.00300542	4	-0.0142862	-5.679e-07
2	0	0	0	1	448.915	0.151352	0.150983	-0.00331098	4	-0.0142886	-4.99902e-07
2	0	0	0	1	449.675	0.113336	0.112948	-0.00357686	4	-0.0142913	-4.03999e-07
2	0	0	1	1	450.436	0.07532	0.0749598	-0.00379395	4	-0.0142941	-2.84394e-07
2	0	0	1	1	451.196	0.037304	0.0368951	-0.00405784	4	-0.0142971	-1.49715e-07
2	0	0	1	1	451.956	-0.000711933	-0.00116529	-0.00430285	4	-0.0143003	5.01406e-09
2	0	0	0	1	452.717	-0.0387279	-0.0391706	-0.00456469	4	-0.0143037	1.78802e-07
2	0	0	0	1	453.477	-0.0767439	-0.0772363	-0.00482424	4	-0.0143072	3.72607e-07
2	0	0	1	1	454.237	-0.11476	-0.115198	-0.00512259	4	-0.014311	5.90112e-07
2	0	0	1	1	454.998	-0.152776	-0.153215	-0.00541969	4	-0.014315	8.30378e-07
2	0	0	0	1	455.758	-0.190787	-0.191236	-0.00573961	4	-0.0143193	1.09762e-06
2	0	0	0	1	456.518	-0.228808	-0.229231	-0.00630136	4	-0.0143239	1.44447e-06
2	0	0	0	1	457.279	-0.266824	-0.267272	-0.00728885	4	-0.014329	1.94811e-06
2	0	0	1	1	458.039	-0.30484	-0.305268	-0.00881835	4	-0.0143351	2.69196e-06
2	0	0	1	1	458.831	-0.344456	-0.344904	-0.0109896	4	-0.014343	3.79035e-06
2	0	0	1	1	459.592	-0.382472	-0.382928	-0.0134166	4	-0.0143523	5.13758e-06
2	0	0	0	1	460.352	-0.420488	-0.420942	-0.0162221	4	-0.0143635	6.82854e-06
2	0	0	0	1	461.112	-0.458504	-0.458936	-0.0194412	4	-0.0143771	8.92227e-06
2	0	0	1	1	461.872	-0.49652	-0.496966	-0.023373	4	-0.0143933	1.16156e-05
2	0	0	1	1	462.633	-0.534536	-0.53498	-0.0281999	4	-0.0144129	1.50864e-05
2	0	0	1	1	463.393	-0.572552	-0.572965	-0.0334507	4	-0.0144364	1.91661e-05
2	0	0	0	1	464.153	-0.610568	-0.610975	-0.0388614	4	-0.0144639	2.37433e-05
2	0	0	0	1	464.914	-0.648584	-0.648996	-0.044101	4	-0.0144954	2.86213e-05
2	0	0	1	1	465.674	-0.6866	-0.68696	-0.0492831	4	-0.014531	3.38555e-05
2	0	0	1	1	466.434	-0.724616	-0.725091	-0.0542484	4	-0.0145704	3.9335e-05
2	0	0	1	1	467.195	-0.762632	-0.763075	-0.0585918	4	-0.0146134	4.471e-05
2	0	0	0	1	467.955	-0.800648	-0.801035	-0.0623252	4	-0.0146594	4.99246e-05
2	0	0	0	1	468.715	-0.838664	-0.839069	-0.0653782	4	-0.0147081	5.48568e-05
2	0	0	1	1	469.476	-0.87668	-0.877107	-0.0679531	4	-0.0147589	5.96021e-05
2	0	0	1	1	470.236	-0.914696	-0.915123	-0.07014	4	-0.0148114	6.41867e-05
2	0	0	1	1	470.996	-0.952712	-0.953147	-0.0719155	4	-0.0148655	6.85461e-05
2	0	0	0	1	471.757	-0.990728	-0.991128	-0.0736121	4	-0.0149208	7.2959e-05
2	0	0	0	1	472.517	-1.02874	-1.02917	-0.0749551	4	-0.0149774	7.71419e-05
2	0	0	1	1	473.277	-1.06676	-1.06717	-0.0763079	4	-0.0150349	8.14334e-05
2	0	0	1	1	474.038	-1.10478	-1.10514	-0.0776702	4	-0.0150934	8.58365e-05
2	0	0	0	1	474.798	-1.14279	-1.14317	-0.0788031	4	-0.015153	9.00856e-05
2	0	0	0	1	475.558	-1.18081	-1.18119	-0.0799276	4	-0.0152133	9.44098e-05
2	0	0	0	1	476.319	-1.21882	-1.21923	-0.0810256	4	-0.0152744	9.87891e-05
2	0	0	1	1	477.079	-1.25684	-1.25722	-0.0821662	4	-0.0153365	0.000103301
2	0	0	1	1	477.839	-1.29486	-1.29524	-0.0831661	4	-0.0153994	0.00010772
2	0	0	0	1	478.599	-1.33287	-1.3333	-0.0845067	4	-0.0154631	0.000112673
2	0	0	0	1	479.36	-1.37089	-1.37127	-0.0857458	4	-0.0155278	0.000117581
2	0	0	0	1	480.12	-1.4089	-1.40929	-0.0874215	4	-0.0155937	0.000123202
2	0	0	1	1	480.88	-1.44692	-1.44728	-0.0895752	4	-0.015661	0.00012964
2	0	0	1	1	481.641	-1.48494	-1.48529	-0.0921689	4	-0.0157302	0.000136898
2	0	0	0	1	482.401	-1.52295	-1.52334	-0.0954079	4	-0.0158014	0.000145338
2	0	0	0	1	483.161	-1.56097	-1.56129	-0.0994732	4	-0.0158755	0.000155307
2	0	0	0	1	483.954	-1.60058	-1.60099	-0.104928	4	-0.0159563	0.000167989
2	0	0	1	1	484.714	-1.6386	-1.63897	-0.111438	4	-0.0160384	0.000182643
2	0	0	1	1	485.474	-1.67662	-1.67705	-0.119267	4	-0.0161262	0.000200017
2	0	0	1	1	486.235	-1.71463	-1.71503	-0.129012	4	-0.0162206	0.000221259
2	0	0	0	1	486.995	-1.75265	-1.75303	-0.139998	4	-0.016323	0.000245421
2	0	0	0	1	487.755	-1.79066	-1.79108	-0.152221	4	-0.0164342	0.00027264
2	0	0	1	1	488.516	-1.82868	-1.82908	-0.165286	4	-0.016555	0.000302321
2	0	0	1	1	489.276	-1.8667	-1.86707	-0.179171	4	-0.0166861	0.000334523
2	0	0	0	1	490.036	-1.90471	-1.90508	-0.193285	4	-0.0168278	0.000368223
2	0	0	0	1	490.797	-1.94273	-1.94309	-0.210504	4	-0.0169814	0.000409029
2	0	0	0	1	491.557	-1.98074	-1.98106	-0.228692	4	-0.0171479	0.000453052
2	1	0	0	0	492.294	-1.98244	-1.9828	-0.214758	4	-0.0173167	0.000425822
2	1	0	0	0	493.054	-1.94443	-1.94479	-0.187962	4	-0.017469	0.000365546
2	1	0	1	0	493.814	-1.90641	-1.90681	-0.167792	4	-0.0176036	0.000319947
2	1	0	1	0	494.575	-1.8684	-1.86878	-0.152606	4	-0.0177248	0.000285186
2	1	0	1	0	495.335	-1.83038	-1.83079	-0.139514	4	-0.0178353	0.000255422
2	1	0	0	0	496.095	-1.79236	-1.7927	-0.128759	4	-0.0179372	0.000230826
2	1	0	0	0	496.856	-1.75435	-1.75476	-0.119966	4	-0.0180317	0.000210511
2	1	0	1	0	497.616	-1.71633	-1.71672	-0.111911	4	-0.0181198	0.00019212
2	1	0	1	0	498.376	-1.67832	-1.67871	-0.105115	4	-0.0182022	0.000176458
2	1	0	1	0	499.137	-1.6403	-1.64076	-0.098979	4	-0.0182798	0.000162401
2	1	0	0	0	499.897	-1.60228	-1.60265	-0.0932585	4	-0.0183528	0.000149461
2	1	0	0	0	500.657	-1.56427	-1.56461	-0.0881415	4	-0.0184218	0.000137907
2	1	0	1	0	501.418	-1.52625	-1.52663	-0.0835297	4	-0.018487	0.000127519
2	1	0	1	0	502.178	-1.48824	-1.48864	-0.0790663	4	-0.0185487	0.000117701
2	1	0	1	0	502.938	-1.45022	-1.45059	-0.0750656	4	-0.0186072	0.000108889
2	1	0	0	0	503.699	-1.4122	-1.4126	-0.0716369	4	-0.0186629	0.000101195
2	1	0	0	0	504.459	-1.37419	-1.3746	-0.0684662	4	-0.018716	9.41136e-05
2	1	0	1	0	505.219	-1.33617	-1.33658	-0.0659431	4	-0.0187671	8.81385e-05
2	1	0	1	0	505.98	-1.29816	-1.29861	-0.0636001	4	-0.0188161	8.25917e-05
2	1	0	1	0	506.74	-1.26014	-1.26058	-0.0609988	4	-0.0188636	7.68938e-05
2	1	0	0	0	507.5	-1.22213	-1.22256	-0.0577285	4	-0.0189086	7.05768e-05
2	1	0	0	0	508.261	-1.18411	-1.1845	-0.0553911	4	-0.0189514	6.56108e-05
2	1	0	1	0	509.021	-1.14609	-1.14649	-0.0541869	4	-0.018993	6.21249e-05
2	1	0	1	0	509.781	-1.10808	-1.10847	-0.0530589	4	-0.0190337	5.8814e-05
2	1	0	1	0	510.542	-1.07006	-1.0705	-0.0522751	4	-0.0190737	5.59604e-05
2	1	0	0	0	511.302	-1.03205	-1.03247	-0.0509055	4	-0.0191128	5.25586e-05
2	1	0	0	0	511.942	-0.999982	-1.00036	-0.0496189	4	-0.019145	4.96368e-05